timestamp_ms,ax,ay,az,gx,gy,gz,latitude,longitude,altitude,satellite_count,position_lock,temperature,pressure,barometer_altitude,highg_ax,highg_ay,highg_az,extension,voltage_battery,bno_ax,bno_ay,bno_az,bno_gx,bno_gy,bno_gz,bno_mx,bno_my,bno_mz,bno_yaw,bno_pitch,bno_roll,magnet_mx,magnet_my,magnet_mz,gas_temp,gas_pressure,gas_humidity,gas_resistance
0,-0.18592800199985504,1.0082080364227295,0.016103999689221382,1.3300000429153442,-3.640000104904175,-1.6100000143051147,0.0,0.0,-17.0,0,False,15.989999771118164,1012.969970703125,1.6805520057678223,0.94921875,0.15234375,0.068359375,0.0,7.705370903015137,0.0,0.0,0.0,0.0,0.0,0.0,0.0,0.0,0.0,0.0,0.0,0.0,-0.14513300359249115,0.3852674663066864,-0.8463899493217468,17.53619956970215,98624,20.262680053710938,5684
10,-0.18592800199985504,1.0082080364227295,0.016103999689221382,1.3300000429153442,-3.640000104904175,-1.6100000143051147,0.0,0.0,-17.0,0,False,15.989999771118164,1012.969970703125,1.6805520057678223,0.94921875,0.15234375,0.068359375,0.0,7.705370903015137,0.0,0.0,0.0,0.0,0.0,0.0,0.0,0.0,0.0,0.0,0.0,0.0,-0.14513300359249115,0.3852674663066864,-0.8463899493217468,17.53619956970215,98624,20.262680053710938,5684
20,-0.18592800199985504,1.0082080364227295,0.016103999689221382,1.3300000429153442,-3.640000104904175,-1.6100000143051147,0.0,0.0,-17.0,0,False,15.989999771118164,1012.969970703125,1.6805520057678223,0.94921875,0.15234375,0.068359375,0.0,7.705370903015137,0.0,0.0,0.0,0.0,0.0,0.0,0.0,0.0,0.0,0.0,0.0,0.0,-0.14513300359249115,0.3852674663066864,-0.8463899493217468,17.53619956970215,98624,20.262680053710938,5684
30,-0.18592800199985504,1.0082080364227295,0.016103999689221382,1.3300000429153442,-3.640000104904175,-1.6100000143051147,0.0,0.0,-17.0,0,False,15.989999771118164,1012.969970703125,1.6805520057678223,0.94921875,0.15234375,0.068359375,0.0,7.705370903015137,0.0,0.0,0.0,0.0,0.0,0.0,0.0,0.0,0.0,0.0,0.0,0.0,-0.14513300359249115,0.3852674663066864,-0.8463899493217468,17.53619956970215,98624,20.262680053710938,5684
40,-0.18592800199985504,1.0082080364227295,0.016103999689221382,1.3300000429153442,-3.640000104904175,-1.6100000143051147,0.0,0.0,-17.0,0,False,15.989999771118164,1012.969970703125,1.6805520057678223,0.94921875,0.15234375,0.068359375,0.0,7.705370903015137,0.0,0.0,0.0,0.0,0.0,0.0,0.0,0.0,0.0,0.0,0.0,0.0,-0.14513300359249115,0.3852674663066864,-0.8463899493217468,17.53619956970215,98624,20.262680053710938,5684
50,-0.1751919984817505,1.0072319507598877,0.016103999689221382,1.3300000429153442,-3.640000104904175,-0.20999999344348907,0.0,0.0,-17.0,0,False,16.029998779296875,1012.9599609375,1.7645047903060913,0.94921875,0.15625,0.068359375,0.0,7.744043350219727,0.418212890625,-0.58026123046875,-0.6220703125,0.418212890625,-0.58026123046875,-0.6220703125,0.418212890625,-0.58026123046875,-0.6220703125,0.15136371552944183,-1.5943101644515991,-2.0404412746429443,-0.1492253690958023,0.3842443823814392,-0.849020779132843,17.53619956970215,98624,20.262680053710938,5684
60,-0.1751919984817505,1.0072319507598877,0.016103999689221382,1.3300000429153442,-3.640000104904175,-0.20999999344348907,0.0,0.0,-17.0,0,False,16.029998779296875,1012.9599609375,1.7645047903060913,0.94921875,0.15625,0.068359375,0.0,7.744043350219727,0.418212890625,-0.58026123046875,-0.6220703125,0.418212890625,-0.58026123046875,-0.6220703125,0.418212890625,-0.58026123046875,-0.6220703125,0.15136371552944183,-1.5943101644515991,-2.0404412746429443,-0.1492253690958023,0.3842443823814392,-0.849020779132843,17.53619956970215,98624,20.262680053710938,5684
70,-0.1751919984817505,1.0072319507598877,0.016103999689221382,1.3300000429153442,-3.640000104904175,-0.20999999344348907,0.0,0.0,-17.0,0,False,16.06999969482422,1012.9299926757812,2.0149402618408203,0.94921875,0.15625,0.068359375,0.0,7.744043350219727,0.418212890625,-0.58026123046875,-0.6220703125,0.418212890625,-0.58026123046875,-0.6220703125,0.418212890625,-0.58026123046875,-0.6220703125,0.15136371552944183,-1.5943101644515991,-2.0404412746429443,-0.2215726375579834,0.3675825893878937,-0.8982753753662109,17.53619956970215,98624,20.262680053710938,5684
80,-0.15030400454998016,1.00381600856781,0.01903199963271618,1.4700000286102295,-4.059999942779541,-1.2599999904632568,0.0,0.0,-17.0,0,False,16.06999969482422,1012.9299926757812,2.0149402618408203,0.955078125,0.15234375,0.068359375,0.0,7.483007431030273,0.418212890625,-0.58026123046875,-0.6220703125,0.418212890625,-0.58026123046875,-0.6220703125,0.418212890625,-0.58026123046875,-0.6220703125,0.15136371552944183,-1.5943101644515991,-2.0404412746429443,-0.2215726375579834,0.3675825893878937,-0.8982753753662109,17.53619956970215,98624,20.262680053710938,5684
90,-0.15030400454998016,1.00381600856781,0.01903199963271618,1.4700000286102295,-4.059999942779541,-1.2599999904632568,0.0,0.0,-17.0,0,False,16.06999969482422,1012.9299926757812,2.0149402618408203,0.955078125,0.15234375,0.068359375,0.0,7.483007431030273,0.418212890625,-0.58026123046875,-0.6220703125,0.418212890625,-0.58026123046875,-0.6220703125,0.418212890625,-0.58026123046875,-0.6220703125,0.15136371552944183,-1.5943101644515991,-2.0404412746429443,-0.2215726375579834,0.3675825893878937,-0.8982753753662109,17.53619956970215,98624,20.262680053710938,5684
100,-0.16299200057983398,1.0116239786148071,0.018055999651551247,1.3300000429153442,-3.5,-0.699999988079071,0.0,0.0,-17.0,0,False,16.10999870300293,1012.97998046875,1.5980114936828613,0.951171875,0.158203125,0.072265625,0.0,7.628026962280273,0.41949462890625,-0.580322265625,-0.62139892578125,0.41949462890625,-0.580322265625,-0.62139892578125,0.41949462890625,-0.580322265625,-0.62139892578125,0.1530190408229828,-1.5966744422912598,-2.0389022827148438,-0.16194094717502594,0.3800058364868164,-0.8611516952514648,17.53619956970215,98624,20.262680053710938,5684
110,-0.16299200057983398,1.0116239786148071,0.018055999651551247,1.3300000429153442,-3.5,-0.699999988079071,0.0,0.0,-17.0,0,False,16.10999870300293,1012.97998046875,1.5980114936828613,0.951171875,0.158203125,0.072265625,0.0,7.628026962280273,0.41949462890625,-0.580322265625,-0.62139892578125,0.41949462890625,-0.580322265625,-0.62139892578125,0.41949462890625,-0.580322265625,-0.62139892578125,0.1530190408229828,-1.5966744422912598,-2.0389022827148438,-0.16194094717502594,0.3800058364868164,-0.8611516952514648,17.53619956970215,98624,20.262680053710938,5684
120,-0.16299200057983398,1.0116239786148071,0.018055999651551247,1.3300000429153442,-3.5,-0.699999988079071,0.0,0.0,-17.0,0,False,16.10999870300293,1012.97998046875,1.5980114936828613,0.951171875,0.158203125,0.072265625,0.0,7.628026962280273,0.41949462890625,-0.580322265625,-0.62139892578125,0.41949462890625,-0.580322265625,-0.62139892578125,0.41949462890625,-0.580322265625,-0.62139892578125,0.1530190408229828,-1.5966744422912598,-2.0389022827148438,-0.16194094717502594,0.3800058364868164,-0.8611516952514648,17.53619956970215,98624,20.262680053710938,5684
130,-0.16299200057983398,1.0116239786148071,0.018055999651551247,1.3300000429153442,-3.5,-0.699999988079071,0.0,0.0,-17.0,0,False,16.1299991607666,1012.9599609375,1.7651150226593018,0.951171875,0.158203125,0.072265625,0.0,7.628026962280273,0.41949462890625,-0.580322265625,-0.62139892578125,0.41949462890625,-0.580322265625,-0.62139892578125,0.41949462890625,-0.580322265625,-0.62139892578125,0.1530190408229828,-1.5966744422912598,-2.0389022827148438,-0.15390236675739288,0.37752118706703186,-0.8583747148513794,17.53619956970215,98624,20.262680053710938,5684
140,-0.16299200057983398,1.0116239786148071,0.018055999651551247,1.3300000429153442,-3.5,-0.699999988079071,0.0,0.0,-17.0,0,False,16.1299991607666,1012.9599609375,1.7651150226593018,0.951171875,0.158203125,0.072265625,0.0,7.628026962280273,0.41949462890625,-0.580322265625,-0.62139892578125,0.41949462890625,-0.580322265625,-0.62139892578125,0.41949462890625,-0.580322265625,-0.62139892578125,0.1530190408229828,-1.5966744422912598,-2.0389022827148438,-0.15390236675739288,0.37752118706703186,-0.8583747148513794,17.53619956970215,98624,20.262680053710938,5684
150,-0.15860000252723694,1.0116239786148071,0.016592001542448997,1.6100000143051147,-4.269999980926514,-1.6100000143051147,0.0,0.0,-17.0,0,False,16.1299991607666,1012.9599609375,1.7651150226593018,0.953125,0.150390625,0.080078125,0.0,7.657031059265137,0.41949462890625,-0.58038330078125,-0.62139892578125,0.41949462890625,-0.58038330078125,-0.62139892578125,0.41949462890625,-0.58038330078125,-0.62139892578125,0.1529688537120819,-1.5967440605163574,-2.038942813873291,-0.15390236675739288,0.37752118706703186,-0.8583747148513794,17.53619956970215,98624,20.262680053710938,5684
160,-0.15860000252723694,1.0116239786148071,0.016592001542448997,1.6100000143051147,-4.269999980926514,-1.6100000143051147,0.0,0.0,-17.0,0,False,16.1299991607666,1012.9599609375,1.7651150226593018,0.953125,0.150390625,0.080078125,0.0,7.657031059265137,0.41949462890625,-0.58038330078125,-0.62139892578125,0.41949462890625,-0.58038330078125,-0.62139892578125,0.41949462890625,-0.58038330078125,-0.62139892578125,0.1529688537120819,-1.5967440605163574,-2.038942813873291,-0.15390236675739288,0.37752118706703186,-0.8583747148513794,17.53619956970215,98624,20.262680053710938,5684
170,-0.15860000252723694,1.0116239786148071,0.016592001542448997,1.6100000143051147,-4.269999980926514,-1.6100000143051147,0.0,0.0,-17.0,0,False,16.1299991607666,1012.9599609375,1.7651150226593018,0.953125,0.150390625,0.080078125,0.0,7.657031059265137,0.41949462890625,-0.58038330078125,-0.62139892578125,0.41949462890625,-0.58038330078125,-0.62139892578125,0.41949462890625,-0.58038330078125,-0.62139892578125,0.1529688537120819,-1.5967440605163574,-2.038942813873291,-0.15390236675739288,0.37752118706703186,-0.8583747148513794,17.53619956970215,98624,20.262680053710938,5684
180,-0.17128799855709076,1.0077199935913086,0.017079999670386314,1.4700000286102295,-3.7100000381469727,-2.5899999141693115,0.0,0.0,-17.0,0,False,16.119998931884766,1012.989990234375,1.5143221616744995,0.955078125,0.154296875,0.07421875,0.0,7.744043350219727,0.41949462890625,-0.58038330078125,-0.62139892578125,0.41949462890625,-0.58038330078125,-0.62139892578125,0.41949462890625,-0.58038330078125,-0.62139892578125,0.1529688537120819,-1.5967440605163574,-2.038942813873291,-0.14600993692874908,0.3813212513923645,-0.8431745171546936,17.53619956970215,98624,20.262680053710938,5684
190,-0.17128799855709076,1.0077199935913086,0.017079999670386314,1.4700000286102295,-3.7100000381469727,-2.5899999141693115,0.0,0.0,-17.0,0,False,16.119998931884766,1012.989990234375,1.5143221616744995,0.955078125,0.154296875,0.07421875,0.0,7.744043350219727,0.41949462890625,-0.58038330078125,-0.62139892578125,0.41949462890625,-0.58038330078125,-0.62139892578125,0.41949462890625,-0.58038330078125,-0.62139892578125,0.1529688537120819,-1.5967440605163574,-2.038942813873291,-0.14600993692874908,0.3813212513923645,-0.8431745171546936,17.53619956970215,98624,20.262680053710938,5684
200,-0.17128799855709076,1.0077199935913086,0.017079999670386314,1.4700000286102295,-3.7100000381469727,-2.5899999141693115,0.0,0.0,-17.0,0,False,16.119998931884766,1012.989990234375,1.5143221616744995,0.955078125,0.154296875,0.07421875,0.0,7.744043350219727,0.41949462890625,-0.58038330078125,-0.62139892578125,0.41949462890625,-0.58038330078125,-0.62139892578125,0.41949462890625,-0.58038330078125,-0.62139892578125,0.1529688537120819,-1.5967440605163574,-2.038942813873291,-0.14600993692874908,0.3813212513923645,-0.8431745171546936,17.53619956970215,98624,20.262680053710938,5684
210,-0.17128799855709076,1.0077199935913086,0.017079999670386314,1.4700000286102295,-3.7100000381469727,-2.5899999141693115,0.0,0.0,-17.0,0,False,16.119998931884766,1012.989990234375,1.5143221616744995,0.955078125,0.154296875,0.07421875,0.0,7.744043350219727,0.41949462890625,-0.58038330078125,-0.62139892578125,0.41949462890625,-0.58038330078125,-0.62139892578125,0.41949462890625,-0.58038330078125,-0.62139892578125,0.1529688537120819,-1.5967440605163574,-2.038942813873291,-0.14600993692874908,0.3813212513923645,-0.8431745171546936,17.53619956970215,98624,20.262680053710938,5684
220,-0.17128799855709076,1.0077199935913086,0.017079999670386314,1.4700000286102295,-3.7100000381469727,-2.5899999141693115,0.0,0.0,-17.0,0,False,16.119998931884766,1012.989990234375,1.5143221616744995,0.955078125,0.154296875,0.07421875,0.0,7.744043350219727,0.41949462890625,-0.58038330078125,-0.62139892578125,0.41949462890625,-0.58038330078125,-0.62139892578125,0.41949462890625,-0.58038330078125,-0.62139892578125,0.1529688537120819,-1.5967440605163574,-2.038942813873291,-0.14600993692874908,0.3813212513923645,-0.8431745171546936,17.53619956970215,98624,20.262680053710938,5684
230,-0.17128799855709076,1.0077199935913086,0.017079999670386314,1.4700000286102295,-3.7100000381469727,-2.5899999141693115,0.0,0.0,-17.0,0,False,16.119998931884766,1012.989990234375,1.5143221616744995,0.955078125,0.154296875,0.07421875,0.0,7.744043350219727,0.41949462890625,-0.58038330078125,-0.62139892578125,0.41949462890625,-0.58038330078125,-0.62139892578125,0.41949462890625,-0.58038330078125,-0.62139892578125,0.1529688537120819,-1.5967440605163574,-2.038942813873291,-0.14600993692874908,0.3813212513923645,-0.8431745171546936,17.53619956970215,98624,20.262680053710938,5684
240,-0.17128799855709076,1.0077199935913086,0.017079999670386314,1.4700000286102295,-3.7100000381469727,-2.5899999141693115,0.0,0.0,-17.0,0,False,16.119998931884766,1012.989990234375,1.5143221616744995,0.955078125,0.154296875,0.07421875,0.0,7.744043350219727,0.41949462890625,-0.58038330078125,-0.62139892578125,0.41949462890625,-0.58038330078125,-0.62139892578125,0.41949462890625,-0.58038330078125,-0.62139892578125,0.1529688537120819,-1.5967440605163574,-2.038942813873291,-0.14600993692874908,0.3813212513923645,-0.8431745171546936,17.53619956970215,98624,20.262680053710938,5684
250,-0.17128799855709076,1.0077199935913086,0.017079999670386314,1.4700000286102295,-3.7100000381469727,-2.5899999141693115,0.0,0.0,-17.0,0,False,16.119998931884766,1012.989990234375,1.5143221616744995,0.955078125,0.154296875,0.07421875,0.0,7.744043350219727,0.41949462890625,-0.58038330078125,-0.62139892578125,0.41949462890625,-0.58038330078125,-0.62139892578125,0.41949462890625,-0.58038330078125,-0.62139892578125,0.1529688537120819,-1.5967440605163574,-2.038942813873291,-0.14600993692874908,0.3813212513923645,-0.8431745171546936,17.53619956970215,98624,20.262680053710938,5684
260,-0.17128799855709076,1.0077199935913086,0.017079999670386314,1.4700000286102295,-3.7100000381469727,-2.5899999141693115,0.0,0.0,-17.0,0,False,16.119998931884766,1012.989990234375,1.5143221616744995,0.955078125,0.154296875,0.07421875,0.0,7.744043350219727,0.41949462890625,-0.58038330078125,-0.62139892578125,0.41949462890625,-0.58038330078125,-0.62139892578125,0.41949462890625,-0.58038330078125,-0.62139892578125,0.1529688537120819,-1.5967440605163574,-2.038942813873291,-0.14600993692874908,0.3813212513923645,-0.8431745171546936,17.53619956970215,98624,20.262680053710938,5684
270,-0.18690401315689087,1.0096720457077026,0.011711999773979187,1.3300000429153442,-3.569999933242798,-2.6600000858306885,0.0,0.0,-17.0,0,False,16.139999389648438,1012.9599609375,1.7651758193969727,0.955078125,0.150390625,0.078125,0.0,7.744043350219727,0.41949462890625,-0.58038330078125,-0.62139892578125,0.41949462890625,-0.58038330078125,-0.62139892578125,0.41949462890625,-0.58038330078125,-0.62139892578125,0.1529688537120819,-1.5967440605163574,-2.038942813873291,-0.14776381850242615,0.38439053297042847,-0.8496053814888,17.79176139831543,98623,20.282320022583008,5684
280,-0.18690401315689087,1.0096720457077026,0.011711999773979187,1.3300000429153442,-3.569999933242798,-2.6600000858306885,0.0,0.0,-17.0,0,False,16.139999389648438,1012.9599609375,1.7651758193969727,0.955078125,0.150390625,0.078125,0.0,7.744043350219727,0.41949462890625,-0.58038330078125,-0.62139892578125,0.41949462890625,-0.58038330078125,-0.62139892578125,0.41949462890625,-0.58038330078125,-0.62139892578125,0.1529688537120819,-1.5967440605163574,-2.038942813873291,-0.14776381850242615,0.38439053297042847,-0.8496053814888,17.79176139831543,98623,20.282320022583008,5684
290,-0.18690401315689087,1.0096720457077026,0.011711999773979187,1.3300000429153442,-3.569999933242798,-2.6600000858306885,0.0,0.0,-17.0,0,False,16.139999389648438,1012.9599609375,1.7651758193969727,0.955078125,0.150390625,0.078125,0.0,7.744043350219727,0.41949462890625,-0.58038330078125,-0.62139892578125,0.41949462890625,-0.58038330078125,-0.62139892578125,0.41949462890625,-0.58038330078125,-0.62139892578125,0.1529688537120819,-1.5967440605163574,-2.038942813873291,-0.14776381850242615,0.38439053297042847,-0.8496053814888,17.79176139831543,98623,20.282320022583008,5684
300,-0.17128799855709076,1.00381600856781,0.015128000639379025,1.399999976158142,-3.7799999713897705,-1.6100000143051147,0.0,0.0,-17.0,0,False,16.170000076293945,1012.9599609375,1.7653590440750122,0.95703125,0.154296875,0.072265625,0.0,7.724706649780273,0.4190673828125,-0.58062744140625,-0.62127685546875,0.4190673828125,-0.58062744140625,-0.62127685546875,0.4190673828125,-0.58062744140625,-0.62127685546875,0.15158462524414062,-1.5964998006820679,-2.0389962196350098,-0.14849458634853363,0.38380590081214905,-0.8455129861831665,17.79176139831543,98623,20.282320022583008,5684
310,-0.17128799855709076,1.00381600856781,0.015128000639379025,1.399999976158142,-3.7799999713897705,-1.6100000143051147,0.0,0.0,-17.0,0,False,16.170000076293945,1012.9599609375,1.7653590440750122,0.95703125,0.154296875,0.072265625,0.0,7.724706649780273,0.4190673828125,-0.58062744140625,-0.62127685546875,0.4190673828125,-0.58062744140625,-0.62127685546875,0.4190673828125,-0.58062744140625,-0.62127685546875,0.15158462524414062,-1.5964998006820679,-2.0389962196350098,-0.14849458634853363,0.38380590081214905,-0.8455129861831665,17.79176139831543,98623,20.282320022583008,5684
320,-0.17128799855709076,1.00381600856781,0.015128000639379025,1.399999976158142,-3.7799999713897705,-1.6100000143051147,0.0,0.0,-17.0,0,False,16.170000076293945,1012.9599609375,1.7653590440750122,0.95703125,0.154296875,0.072265625,0.0,7.724706649780273,0.4190673828125,-0.58062744140625,-0.62127685546875,0.4190673828125,-0.58062744140625,-0.62127685546875,0.4190673828125,-0.58062744140625,-0.62127685546875,0.15158462524414062,-1.5964998006820679,-2.0389962196350098,-0.14849458634853363,0.38380590081214905,-0.8455129861831665,17.79176139831543,98623,20.282320022583008,5684
330,-0.17128799855709076,1.00381600856781,0.015128000639379025,1.399999976158142,-3.7799999713897705,-1.6100000143051147,0.0,0.0,-17.0,0,False,16.18000030517578,1012.9400024414062,1.9324450492858887,0.95703125,0.154296875,0.072265625,0.0,7.724706649780273,0.4190673828125,-0.58062744140625,-0.62127685546875,0.4190673828125,-0.58062744140625,-0.62127685546875,0.4190673828125,-0.58062744140625,-0.62127685546875,0.15158462524414062,-1.5964998006820679,-2.0389962196350098,-0.14820228517055511,0.38175973296165466,-0.8580824136734009,17.79176139831543,98623,20.282320022583008,5684
340,-0.17665600776672363,1.005768060684204,0.016103999689221382,1.399999976158142,-3.569999933242798,-2.0999999046325684,0.0,0.0,-17.0,0,False,16.18000030517578,1012.9400024414062,1.9324450492858887,0.958984375,0.150390625,0.0703125,0.0,7.734375,0.4190673828125,-0.58056640625,-0.62127685546875,0.4190673828125,-0.58056640625,-0.62127685546875,0.4190673828125,-0.58056640625,-0.62127685546875,0.15163476765155792,-1.5964300632476807,-2.0389556884765625,-0.14820228517055511,0.38175973296165466,-0.8580824136734009,17.79176139831543,98623,20.282320022583008,5684
350,-0.17665600776672363,1.005768060684204,0.016103999689221382,1.399999976158142,-3.569999933242798,-2.0999999046325684,0.0,0.0,-17.0,0,False,16.18000030517578,1012.9400024414062,1.9324450492858887,0.958984375,0.150390625,0.0703125,0.0,7.734375,0.4190673828125,-0.58056640625,-0.62127685546875,0.4190673828125,-0.58056640625,-0.62127685546875,0.4190673828125,-0.58056640625,-0.62127685546875,0.15163476765155792,-1.5964300632476807,-2.0389556884765625,-0.14820228517055511,0.38175973296165466,-0.8580824136734009,17.79176139831543,98623,20.282320022583008,5684
360,-0.17665600776672363,1.005768060684204,0.016103999689221382,1.399999976158142,-3.569999933242798,-2.0999999046325684,0.0,0.0,-17.0,0,False,16.18000030517578,1012.9400024414062,1.9324450492858887,0.958984375,0.150390625,0.0703125,0.0,7.734375,0.4190673828125,-0.58056640625,-0.62127685546875,0.4190673828125,-0.58056640625,-0.62127685546875,0.4190673828125,-0.58056640625,-0.62127685546875,0.15163476765155792,-1.5964300632476807,-2.0389556884765625,-0.14820228517055511,0.38175973296165466,-0.8580824136734009,17.79176139831543,98623,20.282320022583008,5684
370,-0.17714399099349976,1.0086959600448608,0.018055999651551247,1.3300000429153442,-3.8499999046325684,-1.2599999904632568,0.0,0.0,-17.0,0,False,16.19999885559082,1012.9199829101562,2.099618673324585,0.955078125,0.154296875,0.064453125,0.0,7.734375,0.4190673828125,-0.58056640625,-0.62127685546875,0.4190673828125,-0.58056640625,-0.62127685546875,0.4190673828125,-0.58056640625,-0.62127685546875,0.15163476765155792,-1.5964300632476807,-2.0389556884765625,-0.14747150242328644,0.38380590081214905,-0.8449283838272095,17.79176139831543,98623,20.282320022583008,5684
380,-0.17714399099349976,1.0086959600448608,0.018055999651551247,1.3300000429153442,-3.8499999046325684,-1.2599999904632568,0.0,0.0,-17.0,0,False,16.19999885559082,1012.9199829101562,2.099618673324585,0.955078125,0.154296875,0.064453125,0.0,7.734375,0.4190673828125,-0.58056640625,-0.62127685546875,0.4190673828125,-0.58056640625,-0.62127685546875,0.4190673828125,-0.58056640625,-0.62127685546875,0.15163476765155792,-1.5964300632476807,-2.0389556884765625,-0.14747150242328644,0.38380590081214905,-0.8449283838272095,17.79176139831543,98623,20.282320022583008,5684
390,-0.17714399099349976,1.0086959600448608,0.018055999651551247,1.3300000429153442,-3.8499999046325684,-1.2599999904632568,0.0,0.0,-17.0,0,False,16.19999885559082,1012.9199829101562,2.099618673324585,0.955078125,0.154296875,0.064453125,0.0,7.734375,0.4190673828125,-0.58056640625,-0.62127685546875,0.4190673828125,-0.58056640625,-0.62127685546875,0.4190673828125,-0.58056640625,-0.62127685546875,0.15163476765155792,-1.5964300632476807,-2.0389556884765625,-0.14747150242328644,0.38380590081214905,-0.8449283838272095,17.79176139831543,98623,20.282320022583008,5684
400,-0.16787201166152954,1.0086959600448608,0.016103999689221382,1.3300000429153442,-3.7100000381469727,-1.5399999618530273,0.0,0.0,-17.0,0,False,16.219999313354492,1012.969970703125,1.6818889379501343,0.95703125,0.150390625,0.068359375,0.0,7.705370903015137,0.4190673828125,-0.58056640625,-0.62127685546875,0.4190673828125,-0.58056640625,-0.62127685546875,0.4190673828125,-0.58056640625,-0.62127685546875,0.15163476765155792,-1.5964300632476807,-2.0389556884765625,-0.14440222084522247,0.38146740198135376,-0.8516515493392944,17.79176139831543,98623,20.282320022583008,5684
410,-0.16787201166152954,1.0086959600448608,0.016103999689221382,1.3300000429153442,-3.7100000381469727,-1.5399999618530273,0.0,0.0,-17.0,0,False,16.219999313354492,1012.969970703125,1.6818889379501343,0.95703125,0.150390625,0.068359375,0.0,7.705370903015137,0.4190673828125,-0.58056640625,-0.62127685546875,0.4190673828125,-0.58056640625,-0.62127685546875,0.4190673828125,-0.58056640625,-0.62127685546875,0.15163476765155792,-1.5964300632476807,-2.0389556884765625,-0.14440222084522247,0.38146740198135376,-0.8516515493392944,17.79176139831543,98623,20.282320022583008,5684
420,-0.16787201166152954,1.0086959600448608,0.016103999689221382,1.3300000429153442,-3.7100000381469727,-1.5399999618530273,0.0,0.0,-17.0,0,False,16.239999771118164,1013.0,1.4311718940734863,0.95703125,0.150390625,0.068359375,0.0,7.705370903015137,0.4190673828125,-0.58056640625,-0.62127685546875,0.4190673828125,-0.58056640625,-0.62127685546875,0.4190673828125,-0.58056640625,-0.62127685546875,0.15163476765155792,-1.5964300632476807,-2.0389556884765625,-0.147325336933136,0.38088276982307434,-0.848289966583252,17.79176139831543,98623,20.282320022583008,5684
430,-0.1698240041732788,1.0052800178527832,0.01756800152361393,1.399999976158142,-3.5,-2.869999885559082,0.0,0.0,-17.0,0,False,16.239999771118164,1013.0,1.4311718940734863,0.95703125,0.1484375,0.064453125,0.0,7.734375,0.4190673828125,-0.58056640625,-0.62127685546875,0.4190673828125,-0.58056640625,-0.62127685546875,0.4190673828125,-0.58056640625,-0.62127685546875,0.15163476765155792,-1.5964300632476807,-2.0389556884765625,-0.147325336933136,0.38088276982307434,-0.848289966583252,17.79176139831543,98623,20.282320022583008,5684
440,-0.1698240041732788,1.0052800178527832,0.01756800152361393,1.399999976158142,-3.5,-2.869999885559082,0.0,0.0,-17.0,0,False,16.239999771118164,1013.0,1.4311718940734863,0.95703125,0.1484375,0.064453125,0.0,7.734375,0.4190673828125,-0.58056640625,-0.62127685546875,0.4190673828125,-0.58056640625,-0.62127685546875,0.4190673828125,-0.58056640625,-0.62127685546875,0.15163476765155792,-1.5964300632476807,-2.0389556884765625,-0.147325336933136,0.38088276982307434,-0.848289966583252,17.79176139831543,98623,20.282320022583008,5684
450,-0.17958399653434753,1.0072319507598877,0.017079999670386314,1.4700000286102295,-3.9200000762939453,-2.7300000190734863,0.0,0.0,-17.0,0,False,16.25,1012.9599609375,1.7658472061157227,0.955078125,0.1484375,0.06640625,0.0,7.724706649780273,0.4190673828125,-0.58056640625,-0.62127685546875,0.4190673828125,-0.58056640625,-0.62127685546875,0.4190673828125,-0.58056640625,-0.62127685546875,0.15163476765155792,-1.5964300632476807,-2.0389556884765625,-0.14586378633975983,0.37883660197257996,-0.8504823446273804,17.79176139831543,98623,20.282320022583008,5684
460,-0.17958399653434753,1.0072319507598877,0.017079999670386314,1.4700000286102295,-3.9200000762939453,-2.7300000190734863,0.0,0.0,-17.0,0,False,16.25,1012.9599609375,1.7658472061157227,0.955078125,0.1484375,0.06640625,0.0,7.724706649780273,0.4190673828125,-0.58056640625,-0.62127685546875,0.4190673828125,-0.58056640625,-0.62127685546875,0.4190673828125,-0.58056640625,-0.62127685546875,0.15163476765155792,-1.5964300632476807,-2.0389556884765625,-0.14586378633975983,0.37883660197257996,-0.8504823446273804,17.79176139831543,98623,20.282320022583008,5684
470,-0.17958399653434753,1.0072319507598877,0.017079999670386314,1.4700000286102295,-3.9200000762939453,-2.7300000190734863,0.0,0.0,-17.0,0,False,16.25,1012.9599609375,1.7658472061157227,0.955078125,0.1484375,0.06640625,0.0,7.724706649780273,0.4190673828125,-0.58056640625,-0.62127685546875,0.4190673828125,-0.58056640625,-0.62127685546875,0.4190673828125,-0.58056640625,-0.62127685546875,0.15163476765155792,-1.5964300632476807,-2.0389556884765625,-0.14586378633975983,0.37883660197257996,-0.8504823446273804,17.79176139831543,98623,20.282320022583008,5684
480,-0.17031200230121613,1.0086959600448608,0.017079999670386314,1.3300000429153442,-3.640000104904175,-2.6600000858306885,0.0,0.0,-17.0,0,False,16.270000457763672,1013.0299682617188,1.1809731721878052,0.95703125,0.15625,0.064453125,0.0,7.744043350219727,0.4190673828125,-0.58056640625,-0.62127685546875,0.4190673828125,-0.58056640625,-0.62127685546875,0.4190673828125,-0.58056640625,-0.62127685546875,0.15163476765155792,-1.5964300632476807,-2.0389556884765625,-0.14747150242328644,0.38278281688690186,-0.8501899838447571,17.79176139831543,98623,20.282320022583008,5684
490,-0.17031200230121613,1.0086959600448608,0.017079999670386314,1.3300000429153442,-3.640000104904175,-2.6600000858306885,0.0,0.0,-17.0,0,False,16.270000457763672,1013.0299682617188,1.1809731721878052,0.95703125,0.15625,0.064453125,0.0,7.744043350219727,0.4190673828125,-0.58056640625,-0.62127685546875,0.4190673828125,-0.58056640625,-0.62127685546875,0.4190673828125,-0.58056640625,-0.62127685546875,0.15163476765155792,-1.5964300632476807,-2.0389556884765625,-0.14747150242328644,0.38278281688690186,-0.8501899838447571,17.79176139831543,98623,20.282320022583008,5684
500,-0.17031200230121613,1.0086959600448608,0.017079999670386314,1.3300000429153442,-3.640000104904175,-2.6600000858306885,0.0,0.0,-17.0,0,False,16.270000457763672,1013.0299682617188,1.1809731721878052,0.95703125,0.15625,0.064453125,0.0,7.744043350219727,0.4190673828125,-0.58056640625,-0.62127685546875,0.4190673828125,-0.58056640625,-0.62127685546875,0.4190673828125,-0.58056640625,-0.62127685546875,0.15163476765155792,-1.5964300632476807,-2.0389556884765625,-0.14747150242328644,0.38278281688690186,-0.8501899838447571,17.79176139831543,98623,20.282320022583008,5684
510,-0.17372800409793854,1.0062559843063354,0.016592001542448997,1.6799999475479126,-3.5,-4.199999809265137,0.0,0.0,-17.0,0,False,16.279998779296875,1013.0,1.431369662284851,0.955078125,0.15234375,0.06640625,0.0,7.744043350219727,0.4193115234375,-0.58038330078125,-0.62139892578125,0.4193115234375,-0.58038330078125,-0.62139892578125,0.4193115234375,-0.58038330078125,-0.62139892578125,0.1525292843580246,-1.5964699983596802,-2.0389695167541504,-0.16311019659042358,0.3849751651287079,-0.8475592136383057,18.14159393310547,98622,20.332836151123047,5684
520,-0.17372800409793854,1.0062559843063354,0.016592001542448997,1.6799999475479126,-3.5,-4.199999809265137,0.0,0.0,-17.0,0,False,16.279998779296875,1013.0,1.431369662284851,0.955078125,0.15234375,0.06640625,0.0,7.744043350219727,0.4193115234375,-0.58038330078125,-0.62139892578125,0.4193115234375,-0.58038330078125,-0.62139892578125,0.4193115234375,-0.58038330078125,-0.62139892578125,0.1525292843580246,-1.5964699983596802,-2.0389695167541504,-0.16311019659042358,0.3849751651287079,-0.8475592136383057,18.14159393310547,98622,20.332836151123047,5684
530,-0.17372800409793854,1.0062559843063354,0.016592001542448997,1.6799999475479126,-3.5,-4.199999809265137,0.0,0.0,-17.0,0,False,16.279998779296875,1013.0,1.431369662284851,0.955078125,0.15234375,0.06640625,0.0,7.744043350219727,0.4193115234375,-0.58038330078125,-0.62139892578125,0.4193115234375,-0.58038330078125,-0.62139892578125,0.4193115234375,-0.58038330078125,-0.62139892578125,0.1525292843580246,-1.5964699983596802,-2.0389695167541504,-0.16311019659042358,0.3849751651287079,-0.8475592136383057,18.14159393310547,98622,20.332836151123047,5684
540,-0.18055999279022217,1.0067440271377563,0.014640000648796558,1.4700000286102295,-3.569999933242798,-4.619999885559082,0.0,0.0,-17.0,0,False,16.28999900817871,1013.0399780273438,1.0972651243209839,0.95703125,0.154296875,0.072265625,0.0,7.724706649780273,0.4193115234375,-0.58038330078125,-0.62139892578125,0.4193115234375,-0.58038330078125,-0.62139892578125,0.4193115234375,-0.58038330078125,-0.62139892578125,0.1525292843580246,-1.5964699983596802,-2.0389695167541504,-0.14834843575954437,0.38702133297920227,-0.8529669642448425,18.14159393310547,98622,20.332836151123047,5684
550,-0.18055999279022217,1.0067440271377563,0.014640000648796558,1.4700000286102295,-3.569999933242798,-4.619999885559082,0.0,0.0,-17.0,0,False,16.28999900817871,1013.0399780273438,1.0972651243209839,0.95703125,0.154296875,0.072265625,0.0,7.724706649780273,0.4193115234375,-0.58038330078125,-0.62139892578125,0.4193115234375,-0.58038330078125,-0.62139892578125,0.4193115234375,-0.58038330078125,-0.62139892578125,0.1525292843580246,-1.5964699983596802,-2.0389695167541504,-0.14834843575954437,0.38702133297920227,-0.8529669642448425,18.14159393310547,98622,20.332836151123047,5684
560,-0.18055999279022217,1.0067440271377563,0.014640000648796558,1.4700000286102295,-3.569999933242798,-4.619999885559082,0.0,0.0,-17.0,0,False,16.28999900817871,1013.0399780273438,1.0972651243209839,0.95703125,0.154296875,0.072265625,0.0,7.724706649780273,0.4193115234375,-0.58038330078125,-0.62139892578125,0.4193115234375,-0.58038330078125,-0.62139892578125,0.4193115234375,-0.58038330078125,-0.62139892578125,0.1525292843580246,-1.5964699983596802,-2.0389695167541504,-0.14834843575954437,0.38702133297920227,-0.8529669642448425,18.14159393310547,98622,20.332836151123047,5684
570,-0.18104800581932068,1.0062559843063354,0.01756800152361393,1.6799999475479126,-3.640000104904175,-3.7799999713897705,0.0,0.0,-17.0,0,False,16.299999237060547,1013.0,1.4314686059951782,0.953125,0.16015625,0.076171875,0.0,7.724706649780273,0.4193115234375,-0.58038330078125,-0.62139892578125,0.4193115234375,-0.58038330078125,-0.62139892578125,0.4193115234375,-0.58038330078125,-0.62139892578125,0.1525292843580246,-1.5964699983596802,-2.0389695167541504,-0.14995615184307098,0.3820520341396332,-0.8478515148162842,18.14159393310547,98622,20.332836151123047,5684
580,-0.18104800581932068,1.0062559843063354,0.01756800152361393,1.6799999475479126,-3.640000104904175,-3.7799999713897705,0.0,0.0,-17.0,0,False,16.299999237060547,1013.0,1.4314686059951782,0.953125,0.16015625,0.076171875,0.0,7.724706649780273,0.4193115234375,-0.58038330078125,-0.62139892578125,0.4193115234375,-0.58038330078125,-0.62139892578125,0.4193115234375,-0.58038330078125,-0.62139892578125,0.1525292843580246,-1.5964699983596802,-2.0389695167541504,-0.14995615184307098,0.3820520341396332,-0.8478515148162842,18.14159393310547,98622,20.332836151123047,5684
590,-0.18104800581932068,1.0062559843063354,0.01756800152361393,1.6799999475479126,-3.640000104904175,-3.7799999713897705,0.0,0.0,-17.0,0,False,16.299999237060547,1013.0,1.4314686059951782,0.953125,0.16015625,0.076171875,0.0,7.724706649780273,0.4193115234375,-0.58038330078125,-0.62139892578125,0.4193115234375,-0.58038330078125,-0.62139892578125,0.4193115234375,-0.58038330078125,-0.62139892578125,0.1525292843580246,-1.5964699983596802,-2.0389695167541504,-0.14995615184307098,0.3820520341396332,-0.8478515148162842,18.14159393310547,98622,20.332836151123047,5684
600,-0.18397599458694458,1.004304051399231,0.013664000667631626,1.6100000143051147,-3.7100000381469727,-3.2899999618530273,0.0,0.0,-17.0,0,False,16.309999465942383,1013.0099487304688,1.3482249975204468,0.951171875,0.162109375,0.078125,0.0,7.724706649780273,0.42041015625,-0.57952880859375,-0.62200927734375,0.42041015625,-0.57952880859375,-0.62200927734375,0.42041015625,-0.57952880859375,-0.62200927734375,0.1562705636024475,-1.5963536500930786,-2.0387492179870605,-0.16047939658164978,0.3852674663066864,-0.8512130975723267,18.14159393310547,98622,20.332836151123047,5684
610,-0.18397599458694458,1.004304051399231,0.013664000667631626,1.6100000143051147,-3.7100000381469727,-3.2899999618530273,0.0,0.0,-17.0,0,False,16.309999465942383,1013.0099487304688,1.3482249975204468,0.951171875,0.162109375,0.078125,0.0,7.724706649780273,0.42041015625,-0.57952880859375,-0.62200927734375,0.42041015625,-0.57952880859375,-0.62200927734375,0.42041015625,-0.57952880859375,-0.62200927734375,0.1562705636024475,-1.5963536500930786,-2.0387492179870605,-0.16047939658164978,0.3852674663066864,-0.8512130975723267,18.14159393310547,98622,20.332836151123047,5684
620,-0.1849519908428192,1.0101600885391235,0.015128000639379025,1.0499999523162842,-3.640000104904175,2.309999942779541,0.0,0.0,-17.0,0,False,16.239999771118164,1013.0099487304688,1.3478988409042358,0.953125,0.1640625,0.076171875,0.0,7.734375,0.420654296875,-0.57940673828125,-0.6220703125,0.420654296875,-0.57940673828125,-0.6220703125,0.420654296875,-0.57940673828125,-0.6220703125,0.1569194495677948,-1.5964609384536743,-2.0386133193969727,-0.15200233459472656,0.3862905502319336,-0.8439052700996399,18.14159393310547,98622,20.332836151123047,5684
630,-0.1849519908428192,1.0101600885391235,0.015128000639379025,1.0499999523162842,-3.640000104904175,2.309999942779541,0.0,0.0,-17.0,0,False,16.239999771118164,1013.0099487304688,1.3478988409042358,0.953125,0.1640625,0.076171875,0.0,7.734375,0.420654296875,-0.57940673828125,-0.6220703125,0.420654296875,-0.57940673828125,-0.6220703125,0.420654296875,-0.57940673828125,-0.6220703125,0.1569194495677948,-1.5964609384536743,-2.0386133193969727,-0.15200233459472656,0.3862905502319336,-0.8439052700996399,18.14159393310547,98622,20.332836151123047,5684
640,-0.1849519908428192,1.0101600885391235,0.015128000639379025,1.0499999523162842,-3.640000104904175,2.309999942779541,0.0,0.0,-17.0,0,False,16.239999771118164,1013.0099487304688,1.3478988409042358,0.953125,0.1640625,0.076171875,0.0,7.734375,0.420654296875,-0.57940673828125,-0.6220703125,0.420654296875,-0.57940673828125,-0.6220703125,0.420654296875,-0.57940673828125,-0.6220703125,0.1569194495677948,-1.5964609384536743,-2.0386133193969727,-0.15200233459472656,0.3862905502319336,-0.8439052700996399,18.14159393310547,98622,20.332836151123047,5684
650,-0.1849519908428192,1.0101600885391235,0.015128000639379025,1.0499999523162842,-3.640000104904175,2.309999942779541,0.0,0.0,-17.0,0,False,16.239999771118164,1013.0099487304688,1.3478988409042358,0.953125,0.1640625,0.076171875,0.0,7.734375,0.420654296875,-0.57940673828125,-0.6220703125,0.420654296875,-0.57940673828125,-0.6220703125,0.420654296875,-0.57940673828125,-0.6220703125,0.1569194495677948,-1.5964609384536743,-2.0386133193969727,-0.15200233459472656,0.3862905502319336,-0.8439052700996399,18.14159393310547,98622,20.332836151123047,5684
660,-0.1849519908428192,1.0101600885391235,0.015128000639379025,1.0499999523162842,-3.640000104904175,2.309999942779541,0.0,0.0,-17.0,0,False,16.239999771118164,1013.0099487304688,1.3478988409042358,0.953125,0.1640625,0.076171875,0.0,7.734375,0.420654296875,-0.57940673828125,-0.6220703125,0.420654296875,-0.57940673828125,-0.6220703125,0.420654296875,-0.57940673828125,-0.6220703125,0.1569194495677948,-1.5964609384536743,-2.0386133193969727,-0.15200233459472656,0.3862905502319336,-0.8439052700996399,18.14159393310547,98622,20.332836151123047,5684
670,-0.1849519908428192,1.0101600885391235,0.015128000639379025,1.0499999523162842,-3.640000104904175,2.309999942779541,0.0,0.0,-17.0,0,False,16.239999771118164,1013.0099487304688,1.3478988409042358,0.953125,0.1640625,0.076171875,0.0,7.734375,0.420654296875,-0.57940673828125,-0.6220703125,0.420654296875,-0.57940673828125,-0.6220703125,0.420654296875,-0.57940673828125,-0.6220703125,0.1569194495677948,-1.5964609384536743,-2.0386133193969727,-0.15200233459472656,0.3862905502319336,-0.8439052700996399,18.14159393310547,98622,20.332836151123047,5684
680,-0.1849519908428192,1.0101600885391235,0.015128000639379025,1.0499999523162842,-3.640000104904175,2.309999942779541,0.0,0.0,-17.0,0,False,16.239999771118164,1013.0099487304688,1.3478988409042358,0.953125,0.1640625,0.076171875,0.0,7.734375,0.420654296875,-0.57940673828125,-0.6220703125,0.420654296875,-0.57940673828125,-0.6220703125,0.420654296875,-0.57940673828125,-0.6220703125,0.1569194495677948,-1.5964609384536743,-2.0386133193969727,-0.15200233459472656,0.3862905502319336,-0.8439052700996399,18.14159393310547,98622,20.332836151123047,5684
690,-0.1849519908428192,1.0101600885391235,0.015128000639379025,1.0499999523162842,-3.640000104904175,2.309999942779541,0.0,0.0,-17.0,0,False,16.239999771118164,1013.0099487304688,1.3478988409042358,0.953125,0.1640625,0.076171875,0.0,7.734375,0.420654296875,-0.57940673828125,-0.6220703125,0.420654296875,-0.57940673828125,-0.6220703125,0.420654296875,-0.57940673828125,-0.6220703125,0.1569194495677948,-1.5964609384536743,-2.0386133193969727,-0.15200233459472656,0.3862905502319336,-0.8439052700996399,18.14159393310547,98622,20.332836151123047,5684
700,-0.1849519908428192,1.0101600885391235,0.015128000639379025,1.0499999523162842,-3.640000104904175,2.309999942779541,0.0,0.0,-17.0,0,False,16.239999771118164,1013.0099487304688,1.3478988409042358,0.953125,0.1640625,0.076171875,0.0,7.734375,0.420654296875,-0.57940673828125,-0.6220703125,0.420654296875,-0.57940673828125,-0.6220703125,0.420654296875,-0.57940673828125,-0.6220703125,0.1569194495677948,-1.5964609384536743,-2.0386133193969727,-0.15200233459472656,0.3862905502319336,-0.8439052700996399,18.14159393310547,98622,20.332836151123047,5684
710,-0.1849519908428192,1.0101600885391235,0.015128000639379025,1.0499999523162842,-3.640000104904175,2.309999942779541,0.0,0.0,-17.0,0,False,16.239999771118164,1013.0099487304688,1.3478988409042358,0.953125,0.1640625,0.076171875,0.0,7.734375,0.420654296875,-0.57940673828125,-0.6220703125,0.420654296875,-0.57940673828125,-0.6220703125,0.420654296875,-0.57940673828125,-0.6220703125,0.1569194495677948,-1.5964609384536743,-2.0386133193969727,-0.15200233459472656,0.3862905502319336,-0.8439052700996399,18.14159393310547,98622,20.332836151123047,5684
720,-0.17763200402259827,1.0082080364227295,0.016592001542448997,0.9800000190734863,-3.640000104904175,3.5,0.0,0.0,-17.0,0,False,16.260000228881836,1013.0499877929688,1.013371229171753,0.951171875,0.16015625,0.072265625,0.0,7.724706649780273,0.41937255859375,-0.580322265625,-0.6214599609375,0.41937255859375,-0.580322265625,-0.6214599609375,0.41937255859375,-0.580322265625,-0.6214599609375,0.15268847346305847,-1.5963724851608276,-2.0389010906219482,-0.14586378633975983,0.3862905502319336,-0.8551592826843262,18.14159393310547,98622,20.332836151123047,5684
730,-0.17763200402259827,1.0082080364227295,0.016592001542448997,0.9800000190734863,-3.640000104904175,3.5,0.0,0.0,-17.0,0,False,16.260000228881836,1013.0499877929688,1.013371229171753,0.951171875,0.16015625,0.072265625,0.0,7.724706649780273,0.41937255859375,-0.580322265625,-0.6214599609375,0.41937255859375,-0.580322265625,-0.6214599609375,0.41937255859375,-0.580322265625,-0.6214599609375,0.15268847346305847,-1.5963724851608276,-2.0389010906219482,-0.14586378633975983,0.3862905502319336,-0.8551592826843262,18.14159393310547,98622,20.332836151123047,5684
740,-0.17763200402259827,1.0082080364227295,0.016592001542448997,0.9800000190734863,-3.640000104904175,3.5,0.0,0.0,-17.0,0,False,16.260000228881836,1013.0499877929688,1.013371229171753,0.951171875,0.16015625,0.072265625,0.0,7.724706649780273,0.41937255859375,-0.580322265625,-0.6214599609375,0.41937255859375,-0.580322265625,-0.6214599609375,0.41937255859375,-0.580322265625,-0.6214599609375,0.15268847346305847,-1.5963724851608276,-2.0389010906219482,-0.14586378633975983,0.3862905502319336,-0.8551592826843262,18.14159393310547,98622,20.332836151123047,5684
750,-0.1698240041732788,1.0077199935913086,0.013664000667631626,0.6299999952316284,-4.059999942779541,3.8499999046325684,0.0,0.0,-17.0,0,False,16.270000457763672,1013.0,1.4313201904296875,0.953125,0.158203125,0.07421875,0.0,7.744043350219727,0.41802978515625,-0.58135986328125,-0.6207275390625,0.41802978515625,-0.58135986328125,-0.6207275390625,0.41802978515625,-0.58135986328125,-0.6207275390625,0.14820805191993713,-1.5965311527252197,-2.0392470359802246,-0.14717918634414673,0.37985968589782715,-0.8443437814712524,18.504894256591797,98621,20.368993759155273,5684
760,-0.1698240041732788,1.0077199935913086,0.013664000667631626,0.6299999952316284,-4.059999942779541,3.8499999046325684,0.0,0.0,-17.0,0,False,16.270000457763672,1013.0,1.4313201904296875,0.953125,0.158203125,0.07421875,0.0,7.744043350219727,0.41802978515625,-0.58135986328125,-0.6207275390625,0.41802978515625,-0.58135986328125,-0.6207275390625,0.41802978515625,-0.58135986328125,-0.6207275390625,0.14820805191993713,-1.5965311527252197,-2.0392470359802246,-0.14717918634414673,0.37985968589782715,-0.8443437814712524,18.504894256591797,98621,20.368993759155273,5684
770,-0.1698240041732788,1.0077199935913086,0.013664000667631626,0.6299999952316284,-4.059999942779541,3.8499999046325684,0.0,0.0,-17.0,0,False,16.270000457763672,1013.0,1.4313201904296875,0.953125,0.158203125,0.07421875,0.0,7.744043350219727,0.41802978515625,-0.58135986328125,-0.6207275390625,0.41802978515625,-0.58135986328125,-0.6207275390625,0.41802978515625,-0.58135986328125,-0.6207275390625,0.14820805191993713,-1.5965311527252197,-2.0392470359802246,-0.14717918634414673,0.37985968589782715,-0.8443437814712524,18.504894256591797,98621,20.368993759155273,5684
780,-0.1698240041732788,1.0077199935913086,0.013664000667631626,0.6299999952316284,-4.059999942779541,3.8499999046325684,0.0,0.0,-17.0,0,False,16.270000457763672,1012.989990234375,1.5151073932647705,0.953125,0.158203125,0.07421875,0.0,7.744043350219727,0.41802978515625,-0.58135986328125,-0.6207275390625,0.41802978515625,-0.58135986328125,-0.6207275390625,0.41802978515625,-0.58135986328125,-0.6207275390625,0.14820805191993713,-1.5965311527252197,-2.0392470359802246,-0.1423560380935669,0.38439053297042847,-0.8589593768119812,18.504894256591797,98621,20.368993759155273,5684
790,-0.1698240041732788,1.0091840028762817,0.009759999811649323,0.49000000953674316,-3.569999933242798,3.640000104904175,0.0,0.0,-17.0,0,False,16.270000457763672,1012.989990234375,1.5151073932647705,0.955078125,0.154296875,0.080078125,0.0,7.724706649780273,0.41790771484375,-0.5814208984375,-0.62066650390625,0.41790771484375,-0.5814208984375,-0.62066650390625,0.41790771484375,-0.5814208984375,-0.62066650390625,0.14782464504241943,-1.596496820449829,-2.039254665374756,-0.1423560380935669,0.38439053297042847,-0.8589593768119812,18.504894256591797,98621,20.368993759155273,5684
800,-0.1698240041732788,1.0091840028762817,0.009759999811649323,0.49000000953674316,-3.569999933242798,3.640000104904175,0.0,0.0,-17.0,0,False,16.270000457763672,1012.989990234375,1.5151073932647705,0.955078125,0.154296875,0.080078125,0.0,7.724706649780273,0.41790771484375,-0.5814208984375,-0.62066650390625,0.41790771484375,-0.5814208984375,-0.62066650390625,0.41790771484375,-0.5814208984375,-0.62066650390625,0.14782464504241943,-1.596496820449829,-2.039254665374756,-0.1423560380935669,0.38439053297042847,-0.8589593768119812,18.504894256591797,98621,20.368993759155273,5684
810,-0.1698240041732788,1.0091840028762817,0.009759999811649323,0.49000000953674316,-3.569999933242798,3.640000104904175,0.0,0.0,-17.0,0,False,16.270000457763672,1012.989990234375,1.5151073932647705,0.955078125,0.154296875,0.080078125,0.0,7.724706649780273,0.41790771484375,-0.5814208984375,-0.62066650390625,0.41790771484375,-0.5814208984375,-0.62066650390625,0.41790771484375,-0.5814208984375,-0.62066650390625,0.14782464504241943,-1.596496820449829,-2.039254665374756,-0.1423560380935669,0.38439053297042847,-0.8589593768119812,18.504894256591797,98621,20.368993759155273,5684
820,-0.15811200439929962,1.0086959600448608,0.016103999689221382,1.2599999904632568,-3.5,3.1500000953674316,0.0,0.0,-17.0,0,False,16.279998779296875,1012.989990234375,1.5151598453521729,0.955078125,0.15234375,0.080078125,0.0,7.753710746765137,0.41790771484375,-0.5814208984375,-0.62066650390625,0.41790771484375,-0.5814208984375,-0.62066650390625,0.41790771484375,-0.5814208984375,-0.62066650390625,0.14782464504241943,-1.596496820449829,-2.039254665374756,-0.14323297142982483,0.38672903180122375,-0.8648056387901306,18.504894256591797,98621,20.368993759155273,5684
830,-0.15811200439929962,1.0086959600448608,0.016103999689221382,1.2599999904632568,-3.5,3.1500000953674316,0.0,0.0,-17.0,0,False,16.279998779296875,1012.989990234375,1.5151598453521729,0.955078125,0.15234375,0.080078125,0.0,7.753710746765137,0.41790771484375,-0.5814208984375,-0.62066650390625,0.41790771484375,-0.5814208984375,-0.62066650390625,0.41790771484375,-0.5814208984375,-0.62066650390625,0.14782464504241943,-1.596496820449829,-2.039254665374756,-0.14323297142982483,0.38672903180122375,-0.8648056387901306,18.504894256591797,98621,20.368993759155273,5684
840,-0.15811200439929962,1.0086959600448608,0.016103999689221382,1.2599999904632568,-3.5,3.1500000953674316,0.0,0.0,-17.0,0,False,16.279998779296875,1012.989990234375,1.5151598453521729,0.955078125,0.15234375,0.080078125,0.0,7.753710746765137,0.41790771484375,-0.5814208984375,-0.62066650390625,0.41790771484375,-0.5814208984375,-0.62066650390625,0.41790771484375,-0.5814208984375,-0.62066650390625,0.14782464504241943,-1.596496820449829,-2.039254665374756,-0.14323297142982483,0.38672903180122375,-0.8648056387901306,18.504894256591797,98621,20.368993759155273,5684
850,-0.14591200649738312,1.0082080364227295,0.01756800152361393,2.0999999046325684,-3.430000066757202,0.0,0.0,0.0,-17.0,0,False,16.28999900817871,1012.969970703125,1.682295799255371,0.9609375,0.150390625,0.080078125,0.0,7.734375,0.41790771484375,-0.5814208984375,-0.62066650390625,0.41790771484375,-0.5814208984375,-0.62066650390625,0.41790771484375,-0.5814208984375,-0.62066650390625,0.14782464504241943,-1.596496820449829,-2.039254665374756,-0.14206372201442719,0.38439053297042847,-0.8541362285614014,18.504894256591797,98621,20.368993759155273,5684
860,-0.14591200649738312,1.0082080364227295,0.01756800152361393,2.0999999046325684,-3.430000066757202,0.0,0.0,0.0,-17.0,0,False,16.28999900817871,1012.969970703125,1.682295799255371,0.9609375,0.150390625,0.080078125,0.0,7.734375,0.41790771484375,-0.5814208984375,-0.62066650390625,0.41790771484375,-0.5814208984375,-0.62066650390625,0.41790771484375,-0.5814208984375,-0.62066650390625,0.14782464504241943,-1.596496820449829,-2.039254665374756,-0.14206372201442719,0.38439053297042847,-0.8541362285614014,18.504894256591797,98621,20.368993759155273,5684
870,-0.14591200649738312,1.0082080364227295,0.01756800152361393,2.0999999046325684,-3.430000066757202,0.0,0.0,0.0,-17.0,0,False,16.299999237060547,1012.97998046875,1.599061131477356,0.9609375,0.150390625,0.080078125,0.0,7.734375,0.41790771484375,-0.5814208984375,-0.62066650390625,0.41790771484375,-0.5814208984375,-0.62066650390625,0.41790771484375,-0.5814208984375,-0.62066650390625,0.14782464504241943,-1.596496820449829,-2.039254665374756,-0.14688687026500702,0.38351359963417053,-0.8633440732955933,18.504894256591797,98621,20.368993759155273,5684
880,-0.157136008143425,1.0086959600448608,0.015128000639379025,1.2599999904632568,-3.7100000381469727,-3.359999895095825,0.0,0.0,-17.0,0,False,16.299999237060547,1012.97998046875,1.599061131477356,0.96484375,0.140625,0.0703125,0.0,7.744043350219727,0.41790771484375,-0.5814208984375,-0.62066650390625,0.41790771484375,-0.5814208984375,-0.62066650390625,0.41790771484375,-0.5814208984375,-0.62066650390625,0.14782464504241943,-1.596496820449829,-2.039254665374756,-0.14688687026500702,0.38351359963417053,-0.8633440732955933,18.504894256591797,98621,20.368993759155273,5684
890,-0.157136008143425,1.0086959600448608,0.015128000639379025,1.2599999904632568,-3.7100000381469727,-3.359999895095825,0.0,0.0,-17.0,0,False,16.299999237060547,1012.97998046875,1.599061131477356,0.96484375,0.140625,0.0703125,0.0,7.744043350219727,0.41790771484375,-0.5814208984375,-0.62066650390625,0.41790771484375,-0.5814208984375,-0.62066650390625,0.41790771484375,-0.5814208984375,-0.62066650390625,0.14782464504241943,-1.596496820449829,-2.039254665374756,-0.14688687026500702,0.38351359963417053,-0.8633440732955933,18.504894256591797,98621,20.368993759155273,5684
900,-0.17372800409793854,1.0116239786148071,0.02000799961388111,2.1700000762939453,-3.640000104904175,-2.6600000858306885,0.0,0.0,-17.0,0,False,16.31999969482422,1013.0,1.4315675497055054,0.962890625,0.142578125,0.072265625,0.0,7.734375,0.41790771484375,-0.5814208984375,-0.62066650390625,0.41790771484375,-0.5814208984375,-0.62066650390625,0.41790771484375,-0.5814208984375,-0.62066650390625,0.14782464504241943,-1.596496820449829,-2.039254665374756,-0.14484068751335144,0.381613552570343,-0.8636363744735718,18.504894256591797,98621,20.368993759155273,5684
910,-0.17372800409793854,1.0116239786148071,0.02000799961388111,2.1700000762939453,-3.640000104904175,-2.6600000858306885,0.0,0.0,-17.0,0,False,16.31999969482422,1013.0,1.4315675497055054,0.962890625,0.142578125,0.072265625,0.0,7.734375,0.41790771484375,-0.5814208984375,-0.62066650390625,0.41790771484375,-0.5814208984375,-0.62066650390625,0.41790771484375,-0.5814208984375,-0.62066650390625,0.14782464504241943,-1.596496820449829,-2.039254665374756,-0.14484068751335144,0.381613552570343,-0.8636363744735718,18.504894256591797,98621,20.368993759155273,5684
920,-0.17372800409793854,1.0116239786148071,0.02000799961388111,2.1700000762939453,-3.640000104904175,-2.6600000858306885,0.0,0.0,-17.0,0,False,16.31999969482422,1013.0,1.4315675497055054,0.962890625,0.142578125,0.072265625,0.0,7.734375,0.41790771484375,-0.5814208984375,-0.62066650390625,0.41790771484375,-0.5814208984375,-0.62066650390625,0.41790771484375,-0.5814208984375,-0.62066650390625,0.14782464504241943,-1.596496820449829,-2.039254665374756,-0.14484068751335144,0.381613552570343,-0.8636363744735718,18.504894256591797,98621,20.368993759155273,5684
930,-0.1600639969110489,1.0096720457077026,0.017079999670386314,2.0999999046325684,-3.569999933242798,-2.0999999046325684,0.0,0.0,-17.0,0,False,16.31999969482422,1012.989990234375,1.515369176864624,0.958984375,0.14453125,0.078125,0.0,7.734375,0.41790771484375,-0.5814208984375,-0.62066650390625,0.41790771484375,-0.5814208984375,-0.62066650390625,0.41790771484375,-0.5814208984375,-0.62066650390625,0.14782464504241943,-1.596496820449829,-2.039254665374756,-0.14542531967163086,0.3849751651287079,-0.8626132607460022,18.504894256591797,98621,20.368993759155273,5684
940,-0.1600639969110489,1.0096720457077026,0.017079999670386314,2.0999999046325684,-3.569999933242798,-2.0999999046325684,0.0,0.0,-17.0,0,False,16.31999969482422,1012.989990234375,1.515369176864624,0.958984375,0.14453125,0.078125,0.0,7.734375,0.41790771484375,-0.5814208984375,-0.62066650390625,0.41790771484375,-0.5814208984375,-0.62066650390625,0.41790771484375,-0.5814208984375,-0.62066650390625,0.14782464504241943,-1.596496820449829,-2.039254665374756,-0.14542531967163086,0.3849751651287079,-0.8626132607460022,18.504894256591797,98621,20.368993759155273,5684
950,-0.1600639969110489,1.0096720457077026,0.017079999670386314,2.0999999046325684,-3.569999933242798,-2.0999999046325684,0.0,0.0,-17.0,0,False,16.31999969482422,1012.989990234375,1.515369176864624,0.958984375,0.14453125,0.078125,0.0,7.734375,0.41790771484375,-0.5814208984375,-0.62066650390625,0.41790771484375,-0.5814208984375,-0.62066650390625,0.41790771484375,-0.5814208984375,-0.62066650390625,0.14782464504241943,-1.596496820449829,-2.039254665374756,-0.14542531967163086,0.3849751651287079,-0.8626132607460022,18.504894256591797,98621,20.368993759155273,5684
960,-0.1600639969110489,1.0096720457077026,0.017079999670386314,2.0999999046325684,-3.569999933242798,-2.0999999046325684,0.0,0.0,-17.0,0,False,16.31999969482422,1013.0299682617188,1.1811772584915161,0.958984375,0.14453125,0.078125,0.0,7.734375,0.41790771484375,-0.5814208984375,-0.62066650390625,0.41790771484375,-0.5814208984375,-0.62066650390625,0.41790771484375,-0.5814208984375,-0.62066650390625,0.14782464504241943,-1.596496820449829,-2.039254665374756,-0.1449868530035019,0.3889213800430298,-0.8734288215637207,18.853164672851562,98620,20.38401985168457,5684
970,-0.1600639969110489,1.0096720457077026,0.016592001542448997,1.1200000047683716,-3.9200000762939453,-3.5,0.0,0.0,-17.0,0,False,16.31999969482422,1013.0299682617188,1.1811772584915161,0.953125,0.142578125,0.078125,0.0,7.734375,0.41790771484375,-0.5814208984375,-0.62066650390625,0.41790771484375,-0.5814208984375,-0.62066650390625,0.41790771484375,-0.5814208984375,-0.62066650390625,0.14782464504241943,-1.596496820449829,-2.039254665374756,-0.1449868530035019,0.3889213800430298,-0.8734288215637207,18.853164672851562,98620,20.38401985168457,5684
980,-0.1600639969110489,1.0096720457077026,0.016592001542448997,1.1200000047683716,-3.9200000762939453,-3.5,0.0,0.0,-17.0,0,False,16.31999969482422,1013.0299682617188,1.1811772584915161,0.953125,0.142578125,0.078125,0.0,7.734375,0.41790771484375,-0.5814208984375,-0.62066650390625,0.41790771484375,-0.5814208984375,-0.62066650390625,0.41790771484375,-0.5814208984375,-0.62066650390625,0.14782464504241943,-1.596496820449829,-2.039254665374756,-0.1449868530035019,0.3889213800430298,-0.8734288215637207,18.853164672851562,98620,20.38401985168457,5684
990,-0.17324000597000122,1.0111359357833862,0.01317600067704916,1.1200000047683716,-3.7100000381469727,-3.7100000381469727,0.0,0.0,-17.0,0,False,16.34000015258789,1013.0,1.4316664934158325,0.955078125,0.15234375,0.080078125,0.0,7.734375,0.41790771484375,-0.5814208984375,-0.62066650390625,0.41790771484375,-0.5814208984375,-0.62066650390625,0.41790771484375,-0.5814208984375,-0.62066650390625,0.14782464504241943,-1.596496820449829,-2.039254665374756,-0.14323297142982483,0.3855597674846649,-0.8826366662979126,18.853164672851562,98620,20.38401985168457,5684
1000,-0.17324000597000122,1.0111359357833862,0.01317600067704916,1.1200000047683716,-3.7100000381469727,-3.7100000381469727,0.0,0.0,-17.0,0,False,16.34000015258789,1013.0,1.4316664934158325,0.955078125,0.15234375,0.080078125,0.0,7.734375,0.41790771484375,-0.5814208984375,-0.62066650390625,0.41790771484375,-0.5814208984375,-0.62066650390625,0.41790771484375,-0.5814208984375,-0.62066650390625,0.14782464504241943,-1.596496820449829,-2.039254665374756,-0.14323297142982483,0.3855597674846649,-0.8826366662979126,18.853164672851562,98620,20.38401985168457,5684
1010,-0.17324000597000122,1.0111359357833862,0.01317600067704916,1.1200000047683716,-3.7100000381469727,-3.7100000381469727,0.0,0.0,-17.0,0,False,16.34000015258789,1013.0,1.4316664934158325,0.955078125,0.15234375,0.080078125,0.0,7.734375,0.41790771484375,-0.5814208984375,-0.62066650390625,0.41790771484375,-0.5814208984375,-0.62066650390625,0.41790771484375,-0.5814208984375,-0.62066650390625,0.14782464504241943,-1.596496820449829,-2.039254665374756,-0.14323297142982483,0.3855597674846649,-0.8826366662979126,18.853164672851562,98620,20.38401985168457,5684
1020,-0.1786080002784729,1.0111359357833862,0.01561600062996149,1.0499999523162842,-4.269999980926514,-1.4700000286102295,0.0,0.0,-17.0,0,False,16.34000015258789,1012.969970703125,1.6825863122940063,0.95703125,0.150390625,0.07421875,0.0,7.753710746765137,0.41790771484375,-0.5814208984375,-0.62066650390625,0.41790771484375,-0.5814208984375,-0.62066650390625,0.41790771484375,-0.5814208984375,-0.62066650390625,0.14782464504241943,-1.596496820449829,-2.039254665374756,-0.16062554717063904,0.3918444812297821,-0.8873136639595032,18.853164672851562,98620,20.38401985168457,5684
1030,-0.1786080002784729,1.0111359357833862,0.01561600062996149,1.0499999523162842,-4.269999980926514,-1.4700000286102295,0.0,0.0,-17.0,0,False,16.34000015258789,1012.969970703125,1.6825863122940063,0.95703125,0.150390625,0.07421875,0.0,7.753710746765137,0.41790771484375,-0.5814208984375,-0.62066650390625,0.41790771484375,-0.5814208984375,-0.62066650390625,0.41790771484375,-0.5814208984375,-0.62066650390625,0.14782464504241943,-1.596496820449829,-2.039254665374756,-0.16062554717063904,0.3918444812297821,-0.8873136639595032,18.853164672851562,98620,20.38401985168457,5684
1040,-0.1786080002784729,1.0111359357833862,0.01561600062996149,1.0499999523162842,-4.269999980926514,-1.4700000286102295,0.0,0.0,-17.0,0,False,16.34000015258789,1012.969970703125,1.6825863122940063,0.95703125,0.150390625,0.07421875,0.0,7.753710746765137,0.41790771484375,-0.5814208984375,-0.62066650390625,0.41790771484375,-0.5814208984375,-0.62066650390625,0.41790771484375,-0.5814208984375,-0.62066650390625,0.14782464504241943,-1.596496820449829,-2.039254665374756,-0.16062554717063904,0.3918444812297821,-0.8873136639595032,18.853164672851562,98620,20.38401985168457,5684
1050,-0.16787201166152954,1.0096720457077026,0.017079999670386314,0.9800000190734863,-3.7799999713897705,-0.2800000011920929,0.0,0.0,-17.0,0,False,16.350000381469727,1012.97998046875,1.5993374586105347,0.962890625,0.15234375,0.076171875,0.0,7.724706649780273,0.41790771484375,-0.5814208984375,-0.62066650390625,0.41790771484375,-0.5814208984375,-0.62066650390625,0.41790771484375,-0.5814208984375,-0.62066650390625,0.14782464504241943,-1.596496820449829,-2.039254665374756,-0.14425607025623322,0.3925752639770508,-0.902513861656189,18.853164672851562,98620,20.38401985168457,5684
1060,-0.16787201166152954,1.0096720457077026,0.017079999670386314,0.9800000190734863,-3.7799999713897705,-0.2800000011920929,0.0,0.0,-17.0,0,False,16.350000381469727,1012.97998046875,1.5993374586105347,0.962890625,0.15234375,0.076171875,0.0,7.724706649780273,0.41790771484375,-0.5814208984375,-0.62066650390625,0.41790771484375,-0.5814208984375,-0.62066650390625,0.41790771484375,-0.5814208984375,-0.62066650390625,0.14782464504241943,-1.596496820449829,-2.039254665374756,-0.14425607025623322,0.3925752639770508,-0.902513861656189,18.853164672851562,98620,20.38401985168457,5684
1070,-0.16787201166152954,1.0096720457077026,0.017079999670386314,0.9800000190734863,-3.7799999713897705,-0.2800000011920929,0.0,0.0,-17.0,0,False,16.279998779296875,1013.0099487304688,1.3480852842330933,0.962890625,0.15234375,0.076171875,0.0,7.724706649780273,0.41790771484375,-0.5814208984375,-0.62066650390625,0.41790771484375,-0.5814208984375,-0.62066650390625,0.41790771484375,-0.5814208984375,-0.62066650390625,0.14782464504241943,-1.596496820449829,-2.039254665374756,-0.13680210709571838,0.3842443823814392,-0.9454838037490845,18.853164672851562,98620,20.38401985168457,5684
1080,-0.17324000597000122,1.0106480121612549,0.01561600062996149,1.6100000143051147,-3.7100000381469727,-3.2200000286102295,0.0,0.0,-17.0,0,False,16.279998779296875,1013.0099487304688,1.3480852842330933,0.95703125,0.146484375,0.078125,0.0,7.734375,0.41790771484375,-0.5814208984375,-0.62066650390625,0.41790771484375,-0.5814208984375,-0.62066650390625,0.41790771484375,-0.5814208984375,-0.62066650390625,0.14782464504241943,-1.596496820449829,-2.039254665374756,-0.13680210709571838,0.3842443823814392,-0.9454838037490845,18.853164672851562,98620,20.38401985168457,5684
1090,-0.17324000597000122,1.0106480121612549,0.01561600062996149,1.6100000143051147,-3.7100000381469727,-3.2200000286102295,0.0,0.0,-17.0,0,False,16.279998779296875,1013.0099487304688,1.3480852842330933,0.95703125,0.146484375,0.078125,0.0,7.734375,0.41790771484375,-0.5814208984375,-0.62066650390625,0.41790771484375,-0.5814208984375,-0.62066650390625,0.41790771484375,-0.5814208984375,-0.62066650390625,0.14782464504241943,-1.596496820449829,-2.039254665374756,-0.13680210709571838,0.3842443823814392,-0.9454838037490845,18.853164672851562,98620,20.38401985168457,5684
1100,-0.17324000597000122,1.0106480121612549,0.01561600062996149,1.6100000143051147,-3.7100000381469727,-3.2200000286102295,0.0,0.0,-17.0,0,False,16.279998779296875,1013.0099487304688,1.3480852842330933,0.95703125,0.146484375,0.078125,0.0,7.734375,0.41790771484375,-0.5814208984375,-0.62066650390625,0.41790771484375,-0.5814208984375,-0.62066650390625,0.41790771484375,-0.5814208984375,-0.62066650390625,0.14782464504241943,-1.596496820449829,-2.039254665374756,-0.13680210709571838,0.3842443823814392,-0.9454838037490845,18.853164672851562,98620,20.38401985168457,5684
1110,-0.17324000597000122,1.0106480121612549,0.01561600062996149,1.6100000143051147,-3.7100000381469727,-3.2200000286102295,0.0,0.0,-17.0,0,False,16.279998779296875,1013.0099487304688,1.3480852842330933,0.95703125,0.146484375,0.078125,0.0,7.734375,0.41790771484375,-0.5814208984375,-0.62066650390625,0.41790771484375,-0.5814208984375,-0.62066650390625,0.41790771484375,-0.5814208984375,-0.62066650390625,0.14782464504241943,-1.596496820449829,-2.039254665374756,-0.13680210709571838,0.3842443823814392,-0.9454838037490845,18.853164672851562,98620,20.38401985168457,5684
1120,-0.17324000597000122,1.0106480121612549,0.01561600062996149,1.6100000143051147,-3.7100000381469727,-3.2200000286102295,0.0,0.0,-17.0,0,False,16.279998779296875,1013.0099487304688,1.3480852842330933,0.95703125,0.146484375,0.078125,0.0,7.734375,0.41790771484375,-0.5814208984375,-0.62066650390625,0.41790771484375,-0.5814208984375,-0.62066650390625,0.41790771484375,-0.5814208984375,-0.62066650390625,0.14782464504241943,-1.596496820449829,-2.039254665374756,-0.13680210709571838,0.3842443823814392,-0.9454838037490845,18.853164672851562,98620,20.38401985168457,5684
1130,-0.17324000597000122,1.0106480121612549,0.01561600062996149,1.6100000143051147,-3.7100000381469727,-3.2200000286102295,0.0,0.0,-17.0,0,False,16.279998779296875,1013.0099487304688,1.3480852842330933,0.95703125,0.146484375,0.078125,0.0,7.734375,0.41790771484375,-0.5814208984375,-0.62066650390625,0.41790771484375,-0.5814208984375,-0.62066650390625,0.41790771484375,-0.5814208984375,-0.62066650390625,0.14782464504241943,-1.596496820449829,-2.039254665374756,-0.13680210709571838,0.3842443823814392,-0.9454838037490845,18.853164672851562,98620,20.38401985168457,5684
1140,-0.17324000597000122,1.0106480121612549,0.01561600062996149,1.6100000143051147,-3.7100000381469727,-3.2200000286102295,0.0,0.0,-17.0,0,False,16.279998779296875,1013.0099487304688,1.3480852842330933,0.95703125,0.146484375,0.078125,0.0,7.734375,0.41790771484375,-0.5814208984375,-0.62066650390625,0.41790771484375,-0.5814208984375,-0.62066650390625,0.41790771484375,-0.5814208984375,-0.62066650390625,0.14782464504241943,-1.596496820449829,-2.039254665374756,-0.13680210709571838,0.3842443823814392,-0.9454838037490845,18.853164672851562,98620,20.38401985168457,5684
1150,-0.17324000597000122,1.0106480121612549,0.01561600062996149,1.6100000143051147,-3.7100000381469727,-3.2200000286102295,0.0,0.0,-17.0,0,False,16.279998779296875,1013.0099487304688,1.3480852842330933,0.95703125,0.146484375,0.078125,0.0,7.734375,0.41790771484375,-0.5814208984375,-0.62066650390625,0.41790771484375,-0.5814208984375,-0.62066650390625,0.41790771484375,-0.5814208984375,-0.62066650390625,0.14782464504241943,-1.596496820449829,-2.039254665374756,-0.13680210709571838,0.3842443823814392,-0.9454838037490845,18.853164672851562,98620,20.38401985168457,5684
1160,-0.17324000597000122,1.0106480121612549,0.01561600062996149,1.6100000143051147,-3.7100000381469727,-3.2200000286102295,0.0,0.0,-17.0,0,False,16.279998779296875,1013.0099487304688,1.3480852842330933,0.95703125,0.146484375,0.078125,0.0,7.734375,0.41790771484375,-0.5814208984375,-0.62066650390625,0.41790771484375,-0.5814208984375,-0.62066650390625,0.41790771484375,-0.5814208984375,-0.62066650390625,0.14782464504241943,-1.596496820449829,-2.039254665374756,-0.13680210709571838,0.3842443823814392,-0.9454838037490845,18.853164672851562,98620,20.38401985168457,5684
1170,-0.17665600776672363,1.0111359357833862,0.016103999689221382,1.1200000047683716,-3.8499999046325684,-0.6299999952316284,0.0,0.0,-17.0,0,False,16.279998779296875,1012.97998046875,1.598950743675232,0.955078125,0.146484375,0.07421875,0.0,7.724706649780273,0.41790771484375,-0.5814208984375,-0.62066650390625,0.41790771484375,-0.5814208984375,-0.62066650390625,0.41790771484375,-0.5814208984375,-0.62066650390625,0.14782464504241943,-1.596496820449829,-2.039254665374756,-0.12584039568901062,0.38541361689567566,-0.9577608704566956,18.853164672851562,98620,20.38401985168457,5684
1180,-0.17665600776672363,1.0111359357833862,0.016103999689221382,1.1200000047683716,-3.8499999046325684,-0.6299999952316284,0.0,0.0,-17.0,0,False,16.279998779296875,1012.97998046875,1.598950743675232,0.955078125,0.146484375,0.07421875,0.0,7.724706649780273,0.41790771484375,-0.5814208984375,-0.62066650390625,0.41790771484375,-0.5814208984375,-0.62066650390625,0.41790771484375,-0.5814208984375,-0.62066650390625,0.14782464504241943,-1.596496820449829,-2.039254665374756,-0.12584039568901062,0.38541361689567566,-0.9577608704566956,18.853164672851562,98620,20.38401985168457,5684
1190,-0.17665600776672363,1.0111359357833862,0.016103999689221382,1.1200000047683716,-3.8499999046325684,-0.6299999952316284,0.0,0.0,-17.0,0,False,16.279998779296875,1012.97998046875,1.598950743675232,0.955078125,0.146484375,0.07421875,0.0,7.724706649780273,0.41790771484375,-0.5814208984375,-0.62066650390625,0.41790771484375,-0.5814208984375,-0.62066650390625,0.41790771484375,-0.5814208984375,-0.62066650390625,0.14782464504241943,-1.596496820449829,-2.039254665374756,-0.12584039568901062,0.38541361689567566,-0.9577608704566956,18.853164672851562,98620,20.38401985168457,5684
1200,-0.1634799987077713,1.0101600885391235,0.01756800152361393,1.5399999618530273,-3.569999933242798,1.1200000047683716,0.0,0.0,-17.0,0,False,16.299999237060547,1012.989990234375,1.5152643918991089,0.955078125,0.150390625,0.076171875,0.0,7.715038776397705,0.41583251953125,-0.58270263671875,-0.6197509765625,0.41583251953125,-0.58270263671875,-0.6197509765625,0.41583251953125,-0.58270263671875,-0.6197509765625,0.14103180170059204,-1.5959540605545044,-2.0395047664642334,-0.12057878077030182,0.3813212513923645,-0.9733995795249939,19.170429229736328,98621,20.392213821411133,5684
1210,-0.1634799987077713,1.0101600885391235,0.01756800152361393,1.5399999618530273,-3.569999933242798,1.1200000047683716,0.0,0.0,-17.0,0,False,16.299999237060547,1012.989990234375,1.5152643918991089,0.955078125,0.150390625,0.076171875,0.0,7.715038776397705,0.41583251953125,-0.58270263671875,-0.6197509765625,0.41583251953125,-0.58270263671875,-0.6197509765625,0.41583251953125,-0.58270263671875,-0.6197509765625,0.14103180170059204,-1.5959540605545044,-2.0395047664642334,-0.12057878077030182,0.3813212513923645,-0.9733995795249939,19.170429229736328,98621,20.392213821411133,5684
1220,-0.1634799987077713,1.0101600885391235,0.01756800152361393,1.5399999618530273,-3.569999933242798,1.1200000047683716,0.0,0.0,-17.0,0,False,16.299999237060547,1012.989990234375,1.5152643918991089,0.955078125,0.150390625,0.076171875,0.0,7.715038776397705,0.41583251953125,-0.58270263671875,-0.6197509765625,0.41583251953125,-0.58270263671875,-0.6197509765625,0.41583251953125,-0.58270263671875,-0.6197509765625,0.14103180170059204,-1.5959540605545044,-2.0395047664642334,-0.12057878077030182,0.3813212513923645,-0.9733995795249939,19.170429229736328,98621,20.392213821411133,5684
1230,-0.1634799987077713,1.0101600885391235,0.01756800152361393,1.5399999618530273,-3.569999933242798,1.1200000047683716,0.0,0.0,-17.0,0,False,16.299999237060547,1013.0,1.4314686059951782,0.955078125,0.150390625,0.076171875,0.0,7.715038776397705,0.41583251953125,-0.58270263671875,-0.6197509765625,0.41583251953125,-0.58270263671875,-0.6197509765625,0.41583251953125,-0.58270263671875,-0.6197509765625,0.14103180170059204,-1.5959540605545044,-2.0395047664642334,-0.10786319524049759,0.38541361689567566,-0.9780765771865845,19.170429229736328,98621,20.392213821411133,5684
1240,-0.1605519950389862,1.0091840028762817,0.018544001504778862,1.9600000381469727,-3.359999895095825,0.07000000029802322,0.0,0.0,-17.0,0,False,16.299999237060547,1013.0,1.4314686059951782,0.955078125,0.150390625,0.080078125,0.0,7.724706649780273,0.41571044921875,-0.582763671875,-0.61968994140625,0.41571044921875,-0.582763671875,-0.61968994140625,0.41571044921875,-0.582763671875,-0.61968994140625,0.1406482458114624,-1.5959198474884033,-2.0395119190216064,-0.10786319524049759,0.38541361689567566,-0.9780765771865845,19.170429229736328,98621,20.392213821411133,5684
1250,-0.1605519950389862,1.0091840028762817,0.018544001504778862,1.9600000381469727,-3.359999895095825,0.07000000029802322,0.0,0.0,-17.0,0,False,16.299999237060547,1013.0,1.4314686059951782,0.955078125,0.150390625,0.080078125,0.0,7.724706649780273,0.41571044921875,-0.582763671875,-0.61968994140625,0.41571044921875,-0.582763671875,-0.61968994140625,0.41571044921875,-0.582763671875,-0.61968994140625,0.1406482458114624,-1.5959198474884033,-2.0395119190216064,-0.10786319524049759,0.38541361689567566,-0.9780765771865845,19.170429229736328,98621,20.392213821411133,5684
1260,-0.1605519950389862,1.0091840028762817,0.018544001504778862,1.9600000381469727,-3.359999895095825,0.07000000029802322,0.0,0.0,-17.0,0,False,16.299999237060547,1013.0,1.4314686059951782,0.955078125,0.150390625,0.080078125,0.0,7.724706649780273,0.41571044921875,-0.582763671875,-0.61968994140625,0.41571044921875,-0.582763671875,-0.61968994140625,0.41571044921875,-0.582763671875,-0.61968994140625,0.1406482458114624,-1.5959198474884033,-2.0395119190216064,-0.10786319524049759,0.38541361689567566,-0.9780765771865845,19.170429229736328,98621,20.392213821411133,5684
1270,-0.1576240062713623,1.0116239786148071,0.019519999623298645,0.8399999737739563,-4.059999942779541,-1.2599999904632568,0.0,0.0,-17.0,0,False,16.309999465942383,1012.989990234375,1.5153168439865112,0.953125,0.146484375,0.078125,0.0,7.744043350219727,0.41571044921875,-0.582763671875,-0.61968994140625,0.41571044921875,-0.582763671875,-0.61968994140625,0.41571044921875,-0.582763671875,-0.61968994140625,0.1406482458114624,-1.5959198474884033,-2.0395119190216064,-0.09324758499860764,0.381613552570343,-1.006138563156128,19.170429229736328,98621,20.392213821411133,5684
1280,-0.1576240062713623,1.0116239786148071,0.019519999623298645,0.8399999737739563,-4.059999942779541,-1.2599999904632568,0.0,0.0,-17.0,0,False,16.309999465942383,1012.989990234375,1.5153168439865112,0.953125,0.146484375,0.078125,0.0,7.744043350219727,0.41571044921875,-0.582763671875,-0.61968994140625,0.41571044921875,-0.582763671875,-0.61968994140625,0.41571044921875,-0.582763671875,-0.61968994140625,0.1406482458114624,-1.5959198474884033,-2.0395119190216064,-0.09324758499860764,0.381613552570343,-1.006138563156128,19.170429229736328,98621,20.392213821411133,5684
1290,-0.1576240062713623,1.0116239786148071,0.019519999623298645,0.8399999737739563,-4.059999942779541,-1.2599999904632568,0.0,0.0,-17.0,0,False,16.309999465942383,1012.989990234375,1.5153168439865112,0.953125,0.146484375,0.078125,0.0,7.744043350219727,0.41571044921875,-0.582763671875,-0.61968994140625,0.41571044921875,-0.582763671875,-0.61968994140625,0.41571044921875,-0.582763671875,-0.61968994140625,0.1406482458114624,-1.5959198474884033,-2.0395119190216064,-0.09324758499860764,0.381613552570343,-1.006138563156128,19.170429229736328,98621,20.392213821411133,5684
1300,-0.15908800065517426,1.012112021446228,0.018544001504778862,0.8399999737739563,-3.7799999713897705,-2.869999885559082,0.0,0.0,-17.0,0,False,16.329999923706055,1012.969970703125,1.6825281381607056,0.95703125,0.146484375,0.080078125,0.0,7.744043350219727,0.41571044921875,-0.582763671875,-0.61968994140625,0.41571044921875,-0.582763671875,-0.61968994140625,0.41571044921875,-0.582763671875,-0.61968994140625,0.1406482458114624,-1.5959198474884033,-2.0395119190216064,-0.08988599479198456,0.3662671744823456,-0.999415397644043,19.170429229736328,98621,20.392213821411133,5684
1310,-0.15908800065517426,1.012112021446228,0.018544001504778862,0.8399999737739563,-3.7799999713897705,-2.869999885559082,0.0,0.0,-17.0,0,False,16.329999923706055,1012.969970703125,1.6825281381607056,0.95703125,0.146484375,0.080078125,0.0,7.744043350219727,0.41571044921875,-0.582763671875,-0.61968994140625,0.41571044921875,-0.582763671875,-0.61968994140625,0.41571044921875,-0.582763671875,-0.61968994140625,0.1406482458114624,-1.5959198474884033,-2.0395119190216064,-0.08988599479198456,0.3662671744823456,-0.999415397644043,19.170429229736328,98621,20.392213821411133,5684
1320,-0.16299200057983398,1.0106480121612549,0.01903199963271618,1.9600000381469727,-3.569999933242798,-3.990000009536743,0.0,0.0,-17.0,0,False,16.329999923706055,1012.97998046875,1.5992268323898315,0.9609375,0.146484375,0.078125,0.0,7.695703506469727,0.41571044921875,-0.582763671875,-0.61968994140625,0.41571044921875,-0.582763671875,-0.61968994140625,0.41571044921875,-0.582763671875,-0.61968994140625,0.1406482458114624,-1.5959198474884033,-2.0395119190216064,-0.10742472857236862,0.38307511806488037,-0.9593685865402222,19.170429229736328,98621,20.392213821411133,5684
1330,-0.16299200057983398,1.0106480121612549,0.01903199963271618,1.9600000381469727,-3.569999933242798,-3.990000009536743,0.0,0.0,-17.0,0,False,16.329999923706055,1012.97998046875,1.5992268323898315,0.9609375,0.146484375,0.078125,0.0,7.695703506469727,0.41571044921875,-0.582763671875,-0.61968994140625,0.41571044921875,-0.582763671875,-0.61968994140625,0.41571044921875,-0.582763671875,-0.61968994140625,0.1406482458114624,-1.5959198474884033,-2.0395119190216064,-0.10742472857236862,0.38307511806488037,-0.9593685865402222,19.170429229736328,98621,20.392213821411133,5684
1340,-0.16299200057983398,1.0106480121612549,0.01903199963271618,1.9600000381469727,-3.569999933242798,-3.990000009536743,0.0,0.0,-17.0,0,False,16.329999923706055,1012.97998046875,1.5992268323898315,0.9609375,0.146484375,0.078125,0.0,7.695703506469727,0.41571044921875,-0.582763671875,-0.61968994140625,0.41571044921875,-0.582763671875,-0.61968994140625,0.41571044921875,-0.582763671875,-0.61968994140625,0.1406482458114624,-1.5959198474884033,-2.0395119190216064,-0.10742472857236862,0.38307511806488037,-0.9593685865402222,19.170429229736328,98621,20.392213821411133,5684
1350,-0.1634799987077713,1.0096720457077026,0.016103999689221382,2.309999942779541,-3.569999933242798,-4.96999979019165,0.0,0.0,-17.0,0,False,16.34000015258789,1012.989990234375,1.5154738426208496,0.9609375,0.1484375,0.07421875,0.0,7.724706649780273,0.41571044921875,-0.582763671875,-0.61968994140625,0.41571044921875,-0.582763671875,-0.61968994140625,0.41571044921875,-0.582763671875,-0.61968994140625,0.1406482458114624,-1.5959198474884033,-2.0395119190216064,-0.11575562506914139,0.4112832546234131,-0.9092370867729187,19.170429229736328,98621,20.392213821411133,5684
1360,-0.1634799987077713,1.0096720457077026,0.016103999689221382,2.309999942779541,-3.569999933242798,-4.96999979019165,0.0,0.0,-17.0,0,False,16.34000015258789,1012.989990234375,1.5154738426208496,0.9609375,0.1484375,0.07421875,0.0,7.724706649780273,0.41571044921875,-0.582763671875,-0.61968994140625,0.41571044921875,-0.582763671875,-0.61968994140625,0.41571044921875,-0.582763671875,-0.61968994140625,0.1406482458114624,-1.5959198474884033,-2.0395119190216064,-0.11575562506914139,0.4112832546234131,-0.9092370867729187,19.170429229736328,98621,20.392213821411133,5684
1370,-0.1634799987077713,1.0096720457077026,0.016103999689221382,2.309999942779541,-3.569999933242798,-4.96999979019165,0.0,0.0,-17.0,0,False,16.34000015258789,1012.989990234375,1.5154738426208496,0.9609375,0.1484375,0.07421875,0.0,7.724706649780273,0.41571044921875,-0.582763671875,-0.61968994140625,0.41571044921875,-0.582763671875,-0.61968994140625,0.41571044921875,-0.582763671875,-0.61968994140625,0.1406482458114624,-1.5959198474884033,-2.0395119190216064,-0.11575562506914139,0.4112832546234131,-0.9092370867729187,19.170429229736328,98621,20.392213821411133,5684
1380,-0.17616799473762512,1.0091840028762817,0.018055999651551247,2.240000009536743,-3.359999895095825,-4.829999923706055,0.0,0.0,-17.0,0,False,16.34000015258789,1013.0399780273438,1.0974546670913696,0.95703125,0.150390625,0.076171875,0.0,7.744043350219727,0.41571044921875,-0.582763671875,-0.61968994140625,0.41571044921875,-0.582763671875,-0.61968994140625,0.41571044921875,-0.582763671875,-0.61968994140625,0.1406482458114624,-1.5959198474884033,-2.0395119190216064,-0.11268635094165802,0.41829875111579895,-0.8392282724380493,19.170429229736328,98621,20.392213821411133,5684
1390,-0.17616799473762512,1.0091840028762817,0.018055999651551247,2.240000009536743,-3.359999895095825,-4.829999923706055,0.0,0.0,-17.0,0,False,16.34000015258789,1013.0399780273438,1.0974546670913696,0.95703125,0.150390625,0.076171875,0.0,7.744043350219727,0.41571044921875,-0.582763671875,-0.61968994140625,0.41571044921875,-0.582763671875,-0.61968994140625,0.41571044921875,-0.582763671875,-0.61968994140625,0.1406482458114624,-1.5959198474884033,-2.0395119190216064,-0.11268635094165802,0.41829875111579895,-0.8392282724380493,19.170429229736328,98621,20.392213821411133,5684
1400,-0.17616799473762512,1.0091840028762817,0.018055999651551247,2.240000009536743,-3.359999895095825,-4.829999923706055,0.0,0.0,-17.0,0,False,16.34000015258789,1013.0399780273438,1.0974546670913696,0.95703125,0.150390625,0.076171875,0.0,7.744043350219727,0.41571044921875,-0.582763671875,-0.61968994140625,0.41571044921875,-0.582763671875,-0.61968994140625,0.41571044921875,-0.582763671875,-0.61968994140625,0.1406482458114624,-1.5959198474884033,-2.0395119190216064,-0.11268635094165802,0.41829875111579895,-0.8392282724380493,19.170429229736328,98621,20.392213821411133,5684
1410,-0.18104800581932068,1.0086959600448608,0.01903199963271618,1.4700000286102295,-3.5,-3.2899999618530273,0.0,0.0,-17.0,0,False,16.350000381469727,1013.0199584960938,1.26510751247406,0.955078125,0.15625,0.078125,0.0,7.724706649780273,0.41668701171875,-0.5821533203125,-0.6201171875,0.41668701171875,-0.5821533203125,-0.6201171875,0.41668701171875,-0.5821533203125,-0.6201171875,0.14377546310424805,-1.596132755279541,-2.0393214225769043,-0.10450160503387451,0.42619118094444275,-0.820666491985321,19.447607040405273,98620,20.37262535095215,6083
1420,-0.18104800581932068,1.0086959600448608,0.01903199963271618,1.4700000286102295,-3.5,-3.2899999618530273,0.0,0.0,-17.0,0,False,16.350000381469727,1013.0199584960938,1.26510751247406,0.955078125,0.15625,0.078125,0.0,7.724706649780273,0.41668701171875,-0.5821533203125,-0.6201171875,0.41668701171875,-0.5821533203125,-0.6201171875,0.41668701171875,-0.5821533203125,-0.6201171875,0.14377546310424805,-1.596132755279541,-2.0393214225769043,-0.10450160503387451,0.42619118094444275,-0.820666491985321,19.447607040405273,98620,20.37262535095215,6083
1430,-0.18104800581932068,1.0086959600448608,0.01903199963271618,1.4700000286102295,-3.5,-3.2899999618530273,0.0,0.0,-17.0,0,False,16.350000381469727,1013.0199584960938,1.26510751247406,0.955078125,0.15625,0.078125,0.0,7.724706649780273,0.41668701171875,-0.5821533203125,-0.6201171875,0.41668701171875,-0.5821533203125,-0.6201171875,0.41668701171875,-0.5821533203125,-0.6201171875,0.14377546310424805,-1.596132755279541,-2.0393214225769043,-0.10450160503387451,0.42619118094444275,-0.820666491985321,19.447607040405273,98620,20.37262535095215,6083
1440,-0.1908079981803894,1.005768060684204,0.01903199963271618,0.5600000023841858,-3.990000009536743,0.07000000029802322,0.0,0.0,-17.0,0,False,16.350000381469727,1012.989990234375,1.515526294708252,0.94921875,0.162109375,0.07421875,0.0,7.705370903015137,0.41668701171875,-0.5821533203125,-0.6201171875,0.41668701171875,-0.5821533203125,-0.6201171875,0.41668701171875,-0.5821533203125,-0.6201171875,0.14377546310424805,-1.596132755279541,-2.0393214225769043,-0.1107863187789917,0.4161064028739929,-0.8042969703674316,19.447607040405273,98620,20.37262535095215,6083
1450,-0.1908079981803894,1.005768060684204,0.01903199963271618,0.5600000023841858,-3.990000009536743,0.07000000029802322,0.0,0.0,-17.0,0,False,16.350000381469727,1012.989990234375,1.515526294708252,0.94921875,0.162109375,0.07421875,0.0,7.705370903015137,0.41668701171875,-0.5821533203125,-0.6201171875,0.41668701171875,-0.5821533203125,-0.6201171875,0.41668701171875,-0.5821533203125,-0.6201171875,0.14377546310424805,-1.596132755279541,-2.0393214225769043,-0.1107863187789917,0.4161064028739929,-0.8042969703674316,19.447607040405273,98620,20.37262535095215,6083
1460,-0.1908079981803894,1.005768060684204,0.01903199963271618,0.5600000023841858,-3.990000009536743,0.07000000029802322,0.0,0.0,-17.0,0,False,16.350000381469727,1012.989990234375,1.515526294708252,0.94921875,0.162109375,0.07421875,0.0,7.705370903015137,0.41668701171875,-0.5821533203125,-0.6201171875,0.41668701171875,-0.5821533203125,-0.6201171875,0.41668701171875,-0.5821533203125,-0.6201171875,0.14377546310424805,-1.596132755279541,-2.0393214225769043,-0.1107863187789917,0.4161064028739929,-0.8042969703674316,19.447607040405273,98620,20.37262535095215,6083
1470,-0.1722640097141266,1.0077199935913086,0.016103999689221382,1.0499999523162842,-3.7100000381469727,2.450000047683716,0.0,0.0,-17.0,0,False,16.35999870300293,1012.989990234375,1.5155785083770752,0.947265625,0.1640625,0.078125,0.0,7.734375,0.41668701171875,-0.5821533203125,-0.6201171875,0.41668701171875,-0.5821533203125,-0.6201171875,0.41668701171875,-0.5821533203125,-0.6201171875,0.14377546310424805,-1.596132755279541,-2.0393214225769043,-0.08097047358751297,0.40748319029808044,-0.8078047633171082,19.447607040405273,98620,20.37262535095215,6083
1480,-0.1722640097141266,1.0077199935913086,0.016103999689221382,1.0499999523162842,-3.7100000381469727,2.450000047683716,0.0,0.0,-17.0,0,False,16.35999870300293,1012.989990234375,1.5155785083770752,0.947265625,0.1640625,0.078125,0.0,7.734375,0.41668701171875,-0.5821533203125,-0.6201171875,0.41668701171875,-0.5821533203125,-0.6201171875,0.41668701171875,-0.5821533203125,-0.6201171875,0.14377546310424805,-1.596132755279541,-2.0393214225769043,-0.08097047358751297,0.40748319029808044,-0.8078047633171082,19.447607040405273,98620,20.37262535095215,6083
1490,-0.1722640097141266,1.0077199935913086,0.016103999689221382,1.0499999523162842,-3.7100000381469727,2.450000047683716,0.0,0.0,-17.0,0,False,16.35999870300293,1012.969970703125,1.6827025413513184,0.947265625,0.1640625,0.078125,0.0,7.734375,0.41668701171875,-0.5821533203125,-0.6201171875,0.41668701171875,-0.5821533203125,-0.6201171875,0.41668701171875,-0.5821533203125,-0.6201171875,0.14377546310424805,-1.596132755279541,-2.0393214225769043,-0.0660625547170639,0.3963753283023834,-0.7934814095497131,19.447607040405273,98620,20.37262535095215,6083
1500,-0.16299200057983398,1.0086959600448608,0.016103999689221382,1.8899999856948853,-3.1500000953674316,2.6600000858306885,0.0,0.0,-17.0,0,False,16.35999870300293,1012.969970703125,1.6827025413513184,0.94921875,0.162109375,0.080078125,0.0,7.715038776397705,0.41668701171875,-0.5821533203125,-0.6201171875,0.41668701171875,-0.5821533203125,-0.6201171875,0.41668701171875,-0.5821533203125,-0.6201171875,0.14377546310424805,-1.596132755279541,-2.0393214225769043,-0.0660625547170639,0.3963753283023834,-0.7934814095497131,19.447607040405273,98620,20.37262535095215,6083
1510,-0.16299200057983398,1.0086959600448608,0.016103999689221382,1.8899999856948853,-3.1500000953674316,2.6600000858306885,0.0,0.0,-17.0,0,False,16.35999870300293,1012.969970703125,1.6827025413513184,0.94921875,0.162109375,0.080078125,0.0,7.715038776397705,0.41668701171875,-0.5821533203125,-0.6201171875,0.41668701171875,-0.5821533203125,-0.6201171875,0.41668701171875,-0.5821533203125,-0.6201171875,0.14377546310424805,-1.596132755279541,-2.0393214225769043,-0.0660625547170639,0.3963753283023834,-0.7934814095497131,19.447607040405273,98620,20.37262535095215,6083
1520,-0.14591200649738312,1.0077199935913086,0.015128000639379025,1.8200000524520874,-3.7100000381469727,-2.380000114440918,0.0,0.0,-17.0,0,False,16.28999900817871,1013.0199584960938,1.2648452520370483,0.95703125,0.14453125,0.076171875,0.0,7.724706649780273,0.41668701171875,-0.5821533203125,-0.6201171875,0.41668701171875,-0.5821533203125,-0.6201171875,0.41668701171875,-0.5821533203125,-0.6201171875,0.14377546310424805,-1.596132755279541,-2.0393214225769043,-0.08301666378974915,0.37825196981430054,-0.7850043773651123,19.447607040405273,98620,20.37262535095215,6083
1530,-0.14591200649738312,1.0077199935913086,0.015128000639379025,1.8200000524520874,-3.7100000381469727,-2.380000114440918,0.0,0.0,-17.0,0,False,16.28999900817871,1013.0199584960938,1.2648452520370483,0.95703125,0.14453125,0.076171875,0.0,7.724706649780273,0.41668701171875,-0.5821533203125,-0.6201171875,0.41668701171875,-0.5821533203125,-0.6201171875,0.41668701171875,-0.5821533203125,-0.6201171875,0.14377546310424805,-1.596132755279541,-2.0393214225769043,-0.08301666378974915,0.37825196981430054,-0.7850043773651123,19.447607040405273,98620,20.37262535095215,6083
1540,-0.14591200649738312,1.0077199935913086,0.015128000639379025,1.8200000524520874,-3.7100000381469727,-2.380000114440918,0.0,0.0,-17.0,0,False,16.28999900817871,1013.0199584960938,1.2648452520370483,0.95703125,0.14453125,0.076171875,0.0,7.724706649780273,0.41668701171875,-0.5821533203125,-0.6201171875,0.41668701171875,-0.5821533203125,-0.6201171875,0.41668701171875,-0.5821533203125,-0.6201171875,0.14377546310424805,-1.596132755279541,-2.0393214225769043,-0.08301666378974915,0.37825196981430054,-0.7850043773651123,19.447607040405273,98620,20.37262535095215,6083
1550,-0.14591200649738312,1.0077199935913086,0.015128000639379025,1.8200000524520874,-3.7100000381469727,-2.380000114440918,0.0,0.0,-17.0,0,False,16.28999900817871,1013.0199584960938,1.2648452520370483,0.95703125,0.14453125,0.076171875,0.0,7.724706649780273,0.41668701171875,-0.5821533203125,-0.6201171875,0.41668701171875,-0.5821533203125,-0.6201171875,0.41668701171875,-0.5821533203125,-0.6201171875,0.14377546310424805,-1.596132755279541,-2.0393214225769043,-0.08301666378974915,0.37825196981430054,-0.7850043773651123,19.447607040405273,98620,20.37262535095215,6083
1560,-0.14591200649738312,1.0077199935913086,0.015128000639379025,1.8200000524520874,-3.7100000381469727,-2.380000114440918,0.0,0.0,-17.0,0,False,16.28999900817871,1013.0199584960938,1.2648452520370483,0.95703125,0.14453125,0.076171875,0.0,7.724706649780273,0.41668701171875,-0.5821533203125,-0.6201171875,0.41668701171875,-0.5821533203125,-0.6201171875,0.41668701171875,-0.5821533203125,-0.6201171875,0.14377546310424805,-1.596132755279541,-2.0393214225769043,-0.08301666378974915,0.37825196981430054,-0.7850043773651123,19.447607040405273,98620,20.37262535095215,6083
1570,-0.14591200649738312,1.0077199935913086,0.015128000639379025,1.8200000524520874,-3.7100000381469727,-2.380000114440918,0.0,0.0,-17.0,0,False,16.28999900817871,1013.0199584960938,1.2648452520370483,0.95703125,0.14453125,0.076171875,0.0,7.724706649780273,0.41668701171875,-0.5821533203125,-0.6201171875,0.41668701171875,-0.5821533203125,-0.6201171875,0.41668701171875,-0.5821533203125,-0.6201171875,0.14377546310424805,-1.596132755279541,-2.0393214225769043,-0.08301666378974915,0.37825196981430054,-0.7850043773651123,19.447607040405273,98620,20.37262535095215,6083
1580,-0.14591200649738312,1.0077199935913086,0.015128000639379025,1.8200000524520874,-3.7100000381469727,-2.380000114440918,0.0,0.0,-17.0,0,False,16.28999900817871,1013.0199584960938,1.2648452520370483,0.95703125,0.14453125,0.076171875,0.0,7.724706649780273,0.41668701171875,-0.5821533203125,-0.6201171875,0.41668701171875,-0.5821533203125,-0.6201171875,0.41668701171875,-0.5821533203125,-0.6201171875,0.14377546310424805,-1.596132755279541,-2.0393214225769043,-0.08301666378974915,0.37825196981430054,-0.7850043773651123,19.447607040405273,98620,20.37262535095215,6083
1590,-0.14591200649738312,1.0077199935913086,0.015128000639379025,1.8200000524520874,-3.7100000381469727,-2.380000114440918,0.0,0.0,-17.0,0,False,16.28999900817871,1013.0199584960938,1.2648452520370483,0.95703125,0.14453125,0.076171875,0.0,7.724706649780273,0.41668701171875,-0.5821533203125,-0.6201171875,0.41668701171875,-0.5821533203125,-0.6201171875,0.41668701171875,-0.5821533203125,-0.6201171875,0.14377546310424805,-1.596132755279541,-2.0393214225769043,-0.08301666378974915,0.37825196981430054,-0.7850043773651123,19.447607040405273,98620,20.37262535095215,6083
1600,-0.14591200649738312,1.0077199935913086,0.015128000639379025,1.8200000524520874,-3.7100000381469727,-2.380000114440918,0.0,0.0,-17.0,0,False,16.28999900817871,1013.0199584960938,1.2648452520370483,0.95703125,0.14453125,0.076171875,0.0,7.724706649780273,0.41668701171875,-0.5821533203125,-0.6201171875,0.41668701171875,-0.5821533203125,-0.6201171875,0.41668701171875,-0.5821533203125,-0.6201171875,0.14377546310424805,-1.596132755279541,-2.0393214225769043,-0.08301666378974915,0.37825196981430054,-0.7850043773651123,19.447607040405273,98620,20.37262535095215,6083
1610,-0.14591200649738312,1.0077199935913086,0.015128000639379025,1.8200000524520874,-3.7100000381469727,-2.380000114440918,0.0,0.0,-17.0,0,False,16.299999237060547,1013.0,1.4314686059951782,0.95703125,0.14453125,0.076171875,0.0,7.724706649780273,0.41668701171875,-0.5821533203125,-0.6201171875,0.41668701171875,-0.5821533203125,-0.6201171875,0.41668701171875,-0.5821533203125,-0.6201171875,0.14377546310424805,-1.596132755279541,-2.0393214225769043,-0.08725518733263016,0.3852674663066864,-0.7793043255805969,19.447607040405273,98620,20.37262535095215,6083
1620,-0.1576240062713623,1.0096720457077026,0.018544001504778862,1.6100000143051147,-3.640000104904175,-6.019999980926514,0.0,0.0,-17.0,0,False,16.299999237060547,1013.0,1.4314686059951782,0.96484375,0.138671875,0.076171875,0.0,7.734375,0.41668701171875,-0.5821533203125,-0.6201171875,0.41668701171875,-0.5821533203125,-0.6201171875,0.41668701171875,-0.5821533203125,-0.6201171875,0.14377546310424805,-1.596132755279541,-2.0393214225769043,-0.08725518733263016,0.3852674663066864,-0.7793043255805969,19.447607040405273,98620,20.37262535095215,6083
1630,-0.1576240062713623,1.0096720457077026,0.018544001504778862,1.6100000143051147,-3.640000104904175,-6.019999980926514,0.0,0.0,-17.0,0,False,16.299999237060547,1013.0,1.4314686059951782,0.96484375,0.138671875,0.076171875,0.0,7.734375,0.41668701171875,-0.5821533203125,-0.6201171875,0.41668701171875,-0.5821533203125,-0.6201171875,0.41668701171875,-0.5821533203125,-0.6201171875,0.14377546310424805,-1.596132755279541,-2.0393214225769043,-0.08725518733263016,0.3852674663066864,-0.7793043255805969,19.447607040405273,98620,20.37262535095215,6083
1640,-0.1576240062713623,1.0096720457077026,0.018544001504778862,1.6100000143051147,-3.640000104904175,-6.019999980926514,0.0,0.0,-17.0,0,False,16.299999237060547,1013.0,1.4314686059951782,0.96484375,0.138671875,0.076171875,0.0,7.734375,0.41668701171875,-0.5821533203125,-0.6201171875,0.41668701171875,-0.5821533203125,-0.6201171875,0.41668701171875,-0.5821533203125,-0.6201171875,0.14377546310424805,-1.596132755279541,-2.0393214225769043,-0.08725518733263016,0.3852674663066864,-0.7793043255805969,19.447607040405273,98620,20.37262535095215,6083
1650,-0.1815359890460968,1.0082080364227295,0.01561600062996149,1.4700000286102295,-3.430000066757202,-4.199999809265137,0.0,0.0,-17.0,0,False,16.299999237060547,1012.969970703125,1.6823538541793823,0.958984375,0.14453125,0.072265625,0.0,7.734375,0.41357421875,-0.58465576171875,-0.61810302734375,0.41357421875,-0.58465576171875,-0.61810302734375,0.41357421875,-0.58465576171875,-0.61810302734375,0.1325332373380661,-1.5967224836349487,-2.0394184589385986,-0.09032446891069412,0.3918444812297821,-0.7826659083366394,19.685321807861328,98621,20.391565322875977,6451
1660,-0.1815359890460968,1.0082080364227295,0.01561600062996149,1.4700000286102295,-3.430000066757202,-4.199999809265137,0.0,0.0,-17.0,0,False,16.299999237060547,1012.969970703125,1.6823538541793823,0.958984375,0.14453125,0.072265625,0.0,7.734375,0.41357421875,-0.58465576171875,-0.61810302734375,0.41357421875,-0.58465576171875,-0.61810302734375,0.41357421875,-0.58465576171875,-0.61810302734375,0.1325332373380661,-1.5967224836349487,-2.0394184589385986,-0.09032446891069412,0.3918444812297821,-0.7826659083366394,19.685321807861328,98621,20.391565322875977,6451
1670,-0.1815359890460968,1.0082080364227295,0.01561600062996149,1.4700000286102295,-3.430000066757202,-4.199999809265137,0.0,0.0,-17.0,0,False,16.299999237060547,1012.969970703125,1.6823538541793823,0.958984375,0.14453125,0.072265625,0.0,7.734375,0.41357421875,-0.58465576171875,-0.61810302734375,0.41357421875,-0.58465576171875,-0.61810302734375,0.41357421875,-0.58465576171875,-0.61810302734375,0.1325332373380661,-1.5967224836349487,-2.0394184589385986,-0.09032446891069412,0.3918444812297821,-0.7826659083366394,19.685321807861328,98621,20.391565322875977,6451
1680,-0.1815359890460968,1.0082080364227295,0.01561600062996149,1.4700000286102295,-3.430000066757202,-4.199999809265137,0.0,0.0,-17.0,0,False,16.309999465942383,1013.0499877929688,1.013546347618103,0.958984375,0.14453125,0.072265625,0.0,7.734375,0.41357421875,-0.58465576171875,-0.61810302734375,0.41357421875,-0.58465576171875,-0.61810302734375,0.41357421875,-0.58465576171875,-0.61810302734375,0.1325332373380661,-1.5967224836349487,-2.0394184589385986,-0.10172463953495026,0.3845366835594177,-0.7838351130485535,19.685321807861328,98621,20.391565322875977,6451
1690,-0.175680011510849,1.0091840028762817,0.01756800152361393,1.4700000286102295,-3.569999933242798,-1.2599999904632568,0.0,0.0,-17.0,0,False,16.309999465942383,1013.0499877929688,1.013546347618103,0.95703125,0.150390625,0.07421875,0.0,7.734375,0.41363525390625,-0.5845947265625,-0.61810302734375,0.41363525390625,-0.5845947265625,-0.61810302734375,0.41363525390625,-0.5845947265625,-0.61810302734375,0.13272933661937714,-1.5967435836791992,-2.0393693447113037,-0.10172463953495026,0.3845366835594177,-0.7838351130485535,19.685321807861328,98621,20.391565322875977,6451
1700,-0.175680011510849,1.0091840028762817,0.01756800152361393,1.4700000286102295,-3.569999933242798,-1.2599999904632568,0.0,0.0,-17.0,0,False,16.309999465942383,1013.0499877929688,1.013546347618103,0.95703125,0.150390625,0.07421875,0.0,7.734375,0.41363525390625,-0.5845947265625,-0.61810302734375,0.41363525390625,-0.5845947265625,-0.61810302734375,0.41363525390625,-0.5845947265625,-0.61810302734375,0.13272933661937714,-1.5967435836791992,-2.0393693447113037,-0.10172463953495026,0.3845366835594177,-0.7838351130485535,19.685321807861328,98621,20.391565322875977,6451
1710,-0.175680011510849,1.0091840028762817,0.01756800152361393,1.4700000286102295,-3.569999933242798,-1.2599999904632568,0.0,0.0,-17.0,0,False,16.309999465942383,1013.0499877929688,1.013546347618103,0.95703125,0.150390625,0.07421875,0.0,7.734375,0.41363525390625,-0.5845947265625,-0.61810302734375,0.41363525390625,-0.5845947265625,-0.61810302734375,0.41363525390625,-0.5845947265625,-0.61810302734375,0.13272933661937714,-1.5967435836791992,-2.0393693447113037,-0.10172463953495026,0.3845366835594177,-0.7838351130485535,19.685321807861328,98621,20.391565322875977,6451
1720,-0.1546960026025772,1.0111359357833862,0.01756800152361393,1.4700000286102295,-3.7100000381469727,-2.1700000762939453,0.0,0.0,-17.0,0,False,16.31999969482422,1012.969970703125,1.6824702024459839,0.958984375,0.16015625,0.076171875,0.0,7.744043350219727,0.41363525390625,-0.5845947265625,-0.61810302734375,0.41363525390625,-0.5845947265625,-0.61810302734375,0.41363525390625,-0.5845947265625,-0.61810302734375,0.13272933661937714,-1.5967435836791992,-2.0393693447113037,-0.09529377520084381,0.3984215259552002,-0.7828120589256287,19.685321807861328,98621,20.391565322875977,6451
1730,-0.1546960026025772,1.0111359357833862,0.01756800152361393,1.4700000286102295,-3.7100000381469727,-2.1700000762939453,0.0,0.0,-17.0,0,False,16.31999969482422,1012.969970703125,1.6824702024459839,0.958984375,0.16015625,0.076171875,0.0,7.744043350219727,0.41363525390625,-0.5845947265625,-0.61810302734375,0.41363525390625,-0.5845947265625,-0.61810302734375,0.41363525390625,-0.5845947265625,-0.61810302734375,0.13272933661937714,-1.5967435836791992,-2.0393693447113037,-0.09529377520084381,0.3984215259552002,-0.7828120589256287,19.685321807861328,98621,20.391565322875977,6451
1740,-0.1546960026025772,1.0111359357833862,0.01756800152361393,1.4700000286102295,-3.7100000381469727,-2.1700000762939453,0.0,0.0,-17.0,0,False,16.31999969482422,1012.969970703125,1.6824702024459839,0.958984375,0.16015625,0.076171875,0.0,7.744043350219727,0.41363525390625,-0.5845947265625,-0.61810302734375,0.41363525390625,-0.5845947265625,-0.61810302734375,0.41363525390625,-0.5845947265625,-0.61810302734375,0.13272933661937714,-1.5967435836791992,-2.0393693447113037,-0.09529377520084381,0.3984215259552002,-0.7828120589256287,19.685321807861328,98621,20.391565322875977,6451
1750,-0.15176799893379211,1.0106480121612549,0.018544001504778862,1.6799999475479126,-3.5,-6.090000152587891,0.0,0.0,-17.0,0,False,16.329999923706055,1013.0199584960938,1.2650200128555298,0.955078125,0.154296875,0.076171875,0.0,7.744043350219727,0.41363525390625,-0.5845947265625,-0.61810302734375,0.41363525390625,-0.5845947265625,-0.61810302734375,0.41363525390625,-0.5845947265625,-0.61810302734375,0.13272933661937714,-1.5967435836791992,-2.0393693447113037,-0.09792458266019821,0.3950599133968353,-0.7829582095146179,19.685321807861328,98621,20.391565322875977,6451
1760,-0.15176799893379211,1.0106480121612549,0.018544001504778862,1.6799999475479126,-3.5,-6.090000152587891,0.0,0.0,-17.0,0,False,16.329999923706055,1013.0199584960938,1.2650200128555298,0.955078125,0.154296875,0.076171875,0.0,7.744043350219727,0.41363525390625,-0.5845947265625,-0.61810302734375,0.41363525390625,-0.5845947265625,-0.61810302734375,0.41363525390625,-0.5845947265625,-0.61810302734375,0.13272933661937714,-1.5967435836791992,-2.0393693447113037,-0.09792458266019821,0.3950599133968353,-0.7829582095146179,19.685321807861328,98621,20.391565322875977,6451
1770,-0.16201600432395935,1.0062559843063354,0.016592001542448997,1.8899999856948853,-3.7100000381469727,-9.170000076293945,0.0,0.0,-17.0,0,False,16.34000015258789,1012.989990234375,1.5154738426208496,0.958984375,0.14453125,0.07421875,0.0,7.724706649780273,0.41363525390625,-0.5845947265625,-0.61810302734375,0.41363525390625,-0.5845947265625,-0.61810302734375,0.41363525390625,-0.5845947265625,-0.61810302734375,0.13272933661937714,-1.5967435836791992,-2.0393693447113037,-0.10201695561408997,0.4039754569530487,-0.7803273797035217,19.685321807861328,98621,20.391565322875977,6451
1780,-0.16201600432395935,1.0062559843063354,0.016592001542448997,1.8899999856948853,-3.7100000381469727,-9.170000076293945,0.0,0.0,-17.0,0,False,16.34000015258789,1012.989990234375,1.5154738426208496,0.958984375,0.14453125,0.07421875,0.0,7.724706649780273,0.41363525390625,-0.5845947265625,-0.61810302734375,0.41363525390625,-0.5845947265625,-0.61810302734375,0.41363525390625,-0.5845947265625,-0.61810302734375,0.13272933661937714,-1.5967435836791992,-2.0393693447113037,-0.10201695561408997,0.4039754569530487,-0.7803273797035217,19.685321807861328,98621,20.391565322875977,6451
1790,-0.16201600432395935,1.0062559843063354,0.016592001542448997,1.8899999856948853,-3.7100000381469727,-9.170000076293945,0.0,0.0,-17.0,0,False,16.34000015258789,1012.989990234375,1.5154738426208496,0.958984375,0.14453125,0.07421875,0.0,7.724706649780273,0.41363525390625,-0.5845947265625,-0.61810302734375,0.41363525390625,-0.5845947265625,-0.61810302734375,0.41363525390625,-0.5845947265625,-0.61810302734375,0.13272933661937714,-1.5967435836791992,-2.0393693447113037,-0.10201695561408997,0.4039754569530487,-0.7803273797035217,19.685321807861328,98621,20.391565322875977,6451
1800,-0.18348801136016846,1.0082080364227295,0.014152000658214092,1.8899999856948853,-3.5,-9.239999771118164,0.0,0.0,-17.0,0,False,16.350000381469727,1013.0199584960938,1.26510751247406,0.95703125,0.1484375,0.07421875,0.0,7.705370903015137,0.41455078125,-0.58392333984375,-0.61865234375,0.41455078125,-0.58392333984375,-0.61865234375,0.41455078125,-0.58392333984375,-0.61865234375,0.1359182894229889,-1.5966800451278687,-2.0393154621124268,-0.09923999011516571,0.3997369110584259,-0.7753580808639526,19.685321807861328,98621,20.391565322875977,6451
1810,-0.18348801136016846,1.0082080364227295,0.014152000658214092,1.8899999856948853,-3.5,-9.239999771118164,0.0,0.0,-17.0,0,False,16.350000381469727,1013.0199584960938,1.26510751247406,0.95703125,0.1484375,0.07421875,0.0,7.705370903015137,0.41455078125,-0.58392333984375,-0.61865234375,0.41455078125,-0.58392333984375,-0.61865234375,0.41455078125,-0.58392333984375,-0.61865234375,0.1359182894229889,-1.5966800451278687,-2.0393154621124268,-0.09923999011516571,0.3997369110584259,-0.7753580808639526,19.685321807861328,98621,20.391565322875977,6451
1820,-0.18348801136016846,1.0082080364227295,0.014152000658214092,1.8899999856948853,-3.5,-9.239999771118164,0.0,0.0,-17.0,0,False,16.350000381469727,1013.0199584960938,1.26510751247406,0.95703125,0.1484375,0.07421875,0.0,7.705370903015137,0.41455078125,-0.58392333984375,-0.61865234375,0.41455078125,-0.58392333984375,-0.61865234375,0.41455078125,-0.58392333984375,-0.61865234375,0.1359182894229889,-1.5966800451278687,-2.0393154621124268,-0.09923999011516571,0.3997369110584259,-0.7753580808639526,19.685321807861328,98621,20.391565322875977,6451
1830,-0.1937360018491745,1.0082080364227295,0.016103999689221382,1.3300000429153442,-3.9200000762939453,-4.900000095367432,0.0,0.0,-17.0,0,False,16.350000381469727,1013.0299682617188,1.1812996864318848,0.94921875,0.16796875,0.0703125,0.0,7.744043350219727,0.41455078125,-0.58392333984375,-0.61865234375,0.41455078125,-0.58392333984375,-0.61865234375,0.41455078125,-0.58392333984375,-0.61865234375,0.1359182894229889,-1.5966800451278687,-2.0393154621124268,-0.10260158032178879,0.39915230870246887,-0.7769657969474792,19.685321807861328,98621,20.391565322875977,6451
1840,-0.1937360018491745,1.0082080364227295,0.016103999689221382,1.3300000429153442,-3.9200000762939453,-4.900000095367432,0.0,0.0,-17.0,0,False,16.350000381469727,1013.0299682617188,1.1812996864318848,0.94921875,0.16796875,0.0703125,0.0,7.744043350219727,0.41455078125,-0.58392333984375,-0.61865234375,0.41455078125,-0.58392333984375,-0.61865234375,0.41455078125,-0.58392333984375,-0.61865234375,0.1359182894229889,-1.5966800451278687,-2.0393154621124268,-0.10260158032178879,0.39915230870246887,-0.7769657969474792,19.685321807861328,98621,20.391565322875977,6451
1850,-0.1937360018491745,1.0082080364227295,0.016103999689221382,1.3300000429153442,-3.9200000762939453,-4.900000095367432,0.0,0.0,-17.0,0,False,16.350000381469727,1013.0299682617188,1.1812996864318848,0.94921875,0.16796875,0.0703125,0.0,7.744043350219727,0.41455078125,-0.58392333984375,-0.61865234375,0.41455078125,-0.58392333984375,-0.61865234375,0.41455078125,-0.58392333984375,-0.61865234375,0.1359182894229889,-1.5966800451278687,-2.0393154621124268,-0.10260158032178879,0.39915230870246887,-0.7769657969474792,19.685321807861328,98621,20.391565322875977,6451
1860,-0.18983200192451477,1.005768060684204,0.018055999651551247,1.190000057220459,-3.2899999618530273,-1.5399999618530273,0.0,0.0,-17.0,0,False,16.35999870300293,1013.0199584960938,1.2651511430740356,0.94921875,0.171875,0.0703125,0.0,7.734375,0.41455078125,-0.58392333984375,-0.61865234375,0.41455078125,-0.58392333984375,-0.61865234375,0.41455078125,-0.58392333984375,-0.61865234375,0.1359182894229889,-1.5966800451278687,-2.0393154621124268,-0.1226249635219574,0.40017539262771606,-0.7823735475540161,19.887645721435547,98620,20.39316177368164,6933
1870,-0.18983200192451477,1.005768060684204,0.018055999651551247,1.190000057220459,-3.2899999618530273,-1.5399999618530273,0.0,0.0,-17.0,0,False,16.35999870300293,1013.0199584960938,1.2651511430740356,0.94921875,0.171875,0.0703125,0.0,7.734375,0.41455078125,-0.58392333984375,-0.61865234375,0.41455078125,-0.58392333984375,-0.61865234375,0.41455078125,-0.58392333984375,-0.61865234375,0.1359182894229889,-1.5966800451278687,-2.0393154621124268,-0.1226249635219574,0.40017539262771606,-0.7823735475540161,19.887645721435547,98620,20.39316177368164,6933
1880,-0.18983200192451477,1.005768060684204,0.018055999651551247,1.190000057220459,-3.2899999618530273,-1.5399999618530273,0.0,0.0,-17.0,0,False,16.35999870300293,1013.0199584960938,1.2651511430740356,0.94921875,0.171875,0.0703125,0.0,7.734375,0.41455078125,-0.58392333984375,-0.61865234375,0.41455078125,-0.58392333984375,-0.61865234375,0.41455078125,-0.58392333984375,-0.61865234375,0.1359182894229889,-1.5966800451278687,-2.0393154621124268,-0.1226249635219574,0.40017539262771606,-0.7823735475540161,19.887645721435547,98620,20.39316177368164,6933
1890,-0.18007200956344604,1.0062559843063354,0.014640000648796558,1.4700000286102295,-3.9200000762939453,0.3499999940395355,0.0,0.0,-17.0,0,False,16.369998931884766,1013.0399780273438,1.097568392753601,0.947265625,0.169921875,0.0703125,0.0,7.705370903015137,0.41455078125,-0.58392333984375,-0.61865234375,0.41455078125,-0.58392333984375,-0.61865234375,0.41455078125,-0.58392333984375,-0.61865234375,0.1359182894229889,-1.5966800451278687,-2.0393154621124268,-0.10479392111301422,0.40090617537498474,-0.7782812118530273,19.887645721435547,98620,20.39316177368164,6933
1900,-0.18007200956344604,1.0062559843063354,0.014640000648796558,1.4700000286102295,-3.9200000762939453,0.3499999940395355,0.0,0.0,-17.0,0,False,16.369998931884766,1013.0399780273438,1.097568392753601,0.947265625,0.169921875,0.0703125,0.0,7.705370903015137,0.41455078125,-0.58392333984375,-0.61865234375,0.41455078125,-0.58392333984375,-0.61865234375,0.41455078125,-0.58392333984375,-0.61865234375,0.1359182894229889,-1.5966800451278687,-2.0393154621124268,-0.10479392111301422,0.40090617537498474,-0.7782812118530273,19.887645721435547,98620,20.39316177368164,6933
1910,-0.18007200956344604,1.0062559843063354,0.014640000648796558,1.4700000286102295,-3.9200000762939453,0.3499999940395355,0.0,0.0,-17.0,0,False,16.369998931884766,1013.0399780273438,1.097568392753601,0.947265625,0.169921875,0.0703125,0.0,7.705370903015137,0.41455078125,-0.58392333984375,-0.61865234375,0.41455078125,-0.58392333984375,-0.61865234375,0.41455078125,-0.58392333984375,-0.61865234375,0.1359182894229889,-1.5966800451278687,-2.0393154621124268,-0.10479392111301422,0.40090617537498474,-0.7782812118530273,19.887645721435547,98620,20.39316177368164,6933
1920,-0.17470400035381317,1.0047919750213623,0.017079999670386314,1.1200000047683716,-3.640000104904175,-0.5600000023841858,0.0,0.0,-17.0,0,False,16.369998931884766,1012.969970703125,1.6827607154846191,0.94921875,0.158203125,0.072265625,0.0,7.715038776397705,0.41455078125,-0.58392333984375,-0.61865234375,0.41455078125,-0.58392333984375,-0.61865234375,0.41455078125,-0.58392333984375,-0.61865234375,0.1359182894229889,-1.5966800451278687,-2.0393154621124268,-0.10245542228221893,0.40309852361679077,-0.7801812291145325,19.887645721435547,98620,20.39316177368164,6933
1930,-0.17470400035381317,1.0047919750213623,0.017079999670386314,1.1200000047683716,-3.640000104904175,-0.5600000023841858,0.0,0.0,-17.0,0,False,16.369998931884766,1012.969970703125,1.6827607154846191,0.94921875,0.158203125,0.072265625,0.0,7.715038776397705,0.41455078125,-0.58392333984375,-0.61865234375,0.41455078125,-0.58392333984375,-0.61865234375,0.41455078125,-0.58392333984375,-0.61865234375,0.1359182894229889,-1.5966800451278687,-2.0393154621124268,-0.10245542228221893,0.40309852361679077,-0.7801812291145325,19.887645721435547,98620,20.39316177368164,6933
1940,-0.17470400035381317,1.0047919750213623,0.017079999670386314,1.1200000047683716,-3.640000104904175,-0.5600000023841858,0.0,0.0,-17.0,0,False,16.3799991607666,1013.0099487304688,1.3485510349273682,0.94921875,0.158203125,0.072265625,0.0,7.715038776397705,0.41455078125,-0.58392333984375,-0.61865234375,0.41455078125,-0.58392333984375,-0.61865234375,0.41455078125,-0.58392333984375,-0.61865234375,0.1359182894229889,-1.5966800451278687,-2.0393154621124268,-0.098947674036026,0.4042677581310272,-0.7814966440200806,19.887645721435547,98620,20.39316177368164,6933
1950,-0.18544000387191772,1.0096720457077026,0.019519999623298645,1.1200000047683716,-3.9200000762939453,0.3499999940395355,0.0,0.0,-17.0,0,False,16.3799991607666,1013.0099487304688,1.3485510349273682,0.94921875,0.154296875,0.072265625,0.0,7.724706649780273,0.41455078125,-0.58392333984375,-0.61865234375,0.41455078125,-0.58392333984375,-0.61865234375,0.41455078125,-0.58392333984375,-0.61865234375,0.1359182894229889,-1.5966800451278687,-2.0393154621124268,-0.098947674036026,0.4042677581310272,-0.7814966440200806,19.887645721435547,98620,20.39316177368164,6933
1960,-0.18544000387191772,1.0096720457077026,0.019519999623298645,1.1200000047683716,-3.9200000762939453,0.3499999940395355,0.0,0.0,-17.0,0,False,16.3799991607666,1013.0099487304688,1.3485510349273682,0.94921875,0.154296875,0.072265625,0.0,7.724706649780273,0.41455078125,-0.58392333984375,-0.61865234375,0.41455078125,-0.58392333984375,-0.61865234375,0.41455078125,-0.58392333984375,-0.61865234375,0.1359182894229889,-1.5966800451278687,-2.0393154621124268,-0.098947674036026,0.4042677581310272,-0.7814966440200806,19.887645721435547,98620,20.39316177368164,6933
1970,-0.157136008143425,1.0091840028762817,0.016103999689221382,1.3300000429153442,-3.569999933242798,-0.9100000262260437,0.0,0.0,-17.0,0,False,16.299999237060547,1013.0099487304688,1.3481783866882324,0.953125,0.15234375,0.076171875,0.0,7.744043350219727,0.41455078125,-0.58392333984375,-0.61865234375,0.41455078125,-0.58392333984375,-0.61865234375,0.41455078125,-0.58392333984375,-0.61865234375,0.1359182894229889,-1.5966800451278687,-2.0393154621124268,-0.10055539011955261,0.39622917771339417,-0.7844197750091553,19.887645721435547,98620,20.39316177368164,6933
1980,-0.157136008143425,1.0091840028762817,0.016103999689221382,1.3300000429153442,-3.569999933242798,-0.9100000262260437,0.0,0.0,-17.0,0,False,16.299999237060547,1013.0099487304688,1.3481783866882324,0.953125,0.15234375,0.076171875,0.0,7.744043350219727,0.41455078125,-0.58392333984375,-0.61865234375,0.41455078125,-0.58392333984375,-0.61865234375,0.41455078125,-0.58392333984375,-0.61865234375,0.1359182894229889,-1.5966800451278687,-2.0393154621124268,-0.10055539011955261,0.39622917771339417,-0.7844197750091553,19.887645721435547,98620,20.39316177368164,6933
1990,-0.157136008143425,1.0091840028762817,0.016103999689221382,1.3300000429153442,-3.569999933242798,-0.9100000262260437,0.0,0.0,-17.0,0,False,16.299999237060547,1013.0099487304688,1.3481783866882324,0.953125,0.15234375,0.076171875,0.0,7.744043350219727,0.41455078125,-0.58392333984375,-0.61865234375,0.41455078125,-0.58392333984375,-0.61865234375,0.41455078125,-0.58392333984375,-0.61865234375,0.1359182894229889,-1.5966800451278687,-2.0393154621124268,-0.10055539011955261,0.39622917771339417,-0.7844197750091553,19.887645721435547,98620,20.39316177368164,6933
2000,-0.157136008143425,1.0091840028762817,0.016103999689221382,1.3300000429153442,-3.569999933242798,-0.9100000262260437,0.0,0.0,-17.0,0,False,16.299999237060547,1013.0099487304688,1.3481783866882324,0.953125,0.15234375,0.076171875,0.0,7.744043350219727,0.41455078125,-0.58392333984375,-0.61865234375,0.41455078125,-0.58392333984375,-0.61865234375,0.41455078125,-0.58392333984375,-0.61865234375,0.1359182894229889,-1.5966800451278687,-2.0393154621124268,-0.10055539011955261,0.39622917771339417,-0.7844197750091553,19.887645721435547,98620,20.39316177368164,6933
2010,-0.157136008143425,1.0091840028762817,0.016103999689221382,1.3300000429153442,-3.569999933242798,-0.9100000262260437,0.0,0.0,-17.0,0,False,16.299999237060547,1013.0099487304688,1.3481783866882324,0.953125,0.15234375,0.076171875,0.0,7.744043350219727,0.41455078125,-0.58392333984375,-0.61865234375,0.41455078125,-0.58392333984375,-0.61865234375,0.41455078125,-0.58392333984375,-0.61865234375,0.1359182894229889,-1.5966800451278687,-2.0393154621124268,-0.10055539011955261,0.39622917771339417,-0.7844197750091553,19.887645721435547,98620,20.39316177368164,6933
2020,-0.157136008143425,1.0091840028762817,0.016103999689221382,1.3300000429153442,-3.569999933242798,-0.9100000262260437,0.0,0.0,-17.0,0,False,16.299999237060547,1013.0099487304688,1.3481783866882324,0.953125,0.15234375,0.076171875,0.0,7.744043350219727,0.41455078125,-0.58392333984375,-0.61865234375,0.41455078125,-0.58392333984375,-0.61865234375,0.41455078125,-0.58392333984375,-0.61865234375,0.1359182894229889,-1.5966800451278687,-2.0393154621124268,-0.10055539011955261,0.39622917771339417,-0.7844197750091553,19.887645721435547,98620,20.39316177368164,6933
2030,-0.157136008143425,1.0091840028762817,0.016103999689221382,1.3300000429153442,-3.569999933242798,-0.9100000262260437,0.0,0.0,-17.0,0,False,16.299999237060547,1013.0099487304688,1.3481783866882324,0.953125,0.15234375,0.076171875,0.0,7.744043350219727,0.41455078125,-0.58392333984375,-0.61865234375,0.41455078125,-0.58392333984375,-0.61865234375,0.41455078125,-0.58392333984375,-0.61865234375,0.1359182894229889,-1.5966800451278687,-2.0393154621124268,-0.10055539011955261,0.39622917771339417,-0.7844197750091553,19.887645721435547,98620,20.39316177368164,6933
2040,-0.157136008143425,1.0091840028762817,0.016103999689221382,1.3300000429153442,-3.569999933242798,-0.9100000262260437,0.0,0.0,-17.0,0,False,16.299999237060547,1013.0099487304688,1.3481783866882324,0.953125,0.15234375,0.076171875,0.0,7.744043350219727,0.41455078125,-0.58392333984375,-0.61865234375,0.41455078125,-0.58392333984375,-0.61865234375,0.41455078125,-0.58392333984375,-0.61865234375,0.1359182894229889,-1.5966800451278687,-2.0393154621124268,-0.10055539011955261,0.39622917771339417,-0.7844197750091553,19.887645721435547,98620,20.39316177368164,6933
2050,-0.157136008143425,1.0091840028762817,0.016103999689221382,1.3300000429153442,-3.569999933242798,-0.9100000262260437,0.0,0.0,-17.0,0,False,16.299999237060547,1013.0099487304688,1.3481783866882324,0.953125,0.15234375,0.076171875,0.0,7.744043350219727,0.41455078125,-0.58392333984375,-0.61865234375,0.41455078125,-0.58392333984375,-0.61865234375,0.41455078125,-0.58392333984375,-0.61865234375,0.1359182894229889,-1.5966800451278687,-2.0393154621124268,-0.10055539011955261,0.39622917771339417,-0.7844197750091553,19.887645721435547,98620,20.39316177368164,6933
2060,-0.157136008143425,1.0091840028762817,0.016103999689221382,1.3300000429153442,-3.569999933242798,-0.9100000262260437,0.0,0.0,-17.0,0,False,16.299999237060547,1012.9599609375,1.7661521434783936,0.953125,0.15234375,0.076171875,0.0,7.744043350219727,0.41455078125,-0.58392333984375,-0.61865234375,0.41455078125,-0.58392333984375,-0.61865234375,0.41455078125,-0.58392333984375,-0.61865234375,0.1359182894229889,-1.5966800451278687,-2.0393154621124268,-0.09719379991292953,0.3997369110584259,-0.784273624420166,19.887645721435547,98620,20.39316177368164,6933
2070,-0.1600639969110489,1.0067440271377563,0.017079999670386314,1.5399999618530273,-3.9200000762939453,-5.599999904632568,0.0,0.0,-17.0,0,False,16.299999237060547,1012.9599609375,1.7661521434783936,0.95703125,0.146484375,0.072265625,0.0,7.744043350219727,0.41455078125,-0.58392333984375,-0.61865234375,0.41455078125,-0.58392333984375,-0.61865234375,0.41455078125,-0.58392333984375,-0.61865234375,0.1359182894229889,-1.5966800451278687,-2.0393154621124268,-0.09719379991292953,0.3997369110584259,-0.784273624420166,19.887645721435547,98620,20.39316177368164,6933
2080,-0.1600639969110489,1.0067440271377563,0.017079999670386314,1.5399999618530273,-3.9200000762939453,-5.599999904632568,0.0,0.0,-17.0,0,False,16.299999237060547,1012.9599609375,1.7661521434783936,0.95703125,0.146484375,0.072265625,0.0,7.744043350219727,0.41455078125,-0.58392333984375,-0.61865234375,0.41455078125,-0.58392333984375,-0.61865234375,0.41455078125,-0.58392333984375,-0.61865234375,0.1359182894229889,-1.5966800451278687,-2.0393154621124268,-0.09719379991292953,0.3997369110584259,-0.784273624420166,19.887645721435547,98620,20.39316177368164,6933
2090,-0.1600639969110489,1.0067440271377563,0.017079999670386314,1.5399999618530273,-3.9200000762939453,-5.599999904632568,0.0,0.0,-17.0,0,False,16.299999237060547,1012.9599609375,1.7661521434783936,0.95703125,0.146484375,0.072265625,0.0,7.744043350219727,0.41455078125,-0.58392333984375,-0.61865234375,0.41455078125,-0.58392333984375,-0.61865234375,0.41455078125,-0.58392333984375,-0.61865234375,0.1359182894229889,-1.5966800451278687,-2.0393154621124268,-0.09719379991292953,0.3997369110584259,-0.784273624420166,19.887645721435547,98620,20.39316177368164,6933
2100,-0.17372800409793854,1.0077199935913086,0.01268799975514412,1.3300000429153442,-3.990000009536743,-8.050000190734863,0.0,0.0,-17.0,0,False,16.31999969482422,1013.0099487304688,1.3482716083526611,0.955078125,0.1484375,0.0703125,0.0,7.734375,0.41680908203125,-0.5826416015625,-0.619384765625,0.41680908203125,-0.5826416015625,-0.619384765625,0.41680908203125,-0.5826416015625,-0.619384765625,0.14248670637607574,-1.5974448919296265,-2.0383992195129395,-0.10187079757452011,0.4026600420475006,-0.783542811870575,20.062410354614258,98620,20.357419967651367,7339
2110,-0.17372800409793854,1.0077199935913086,0.01268799975514412,1.3300000429153442,-3.990000009536743,-8.050000190734863,0.0,0.0,-17.0,0,False,16.31999969482422,1013.0099487304688,1.3482716083526611,0.955078125,0.1484375,0.0703125,0.0,7.734375,0.41680908203125,-0.5826416015625,-0.619384765625,0.41680908203125,-0.5826416015625,-0.619384765625,0.41680908203125,-0.5826416015625,-0.619384765625,0.14248670637607574,-1.5974448919296265,-2.0383992195129395,-0.10187079757452011,0.4026600420475006,-0.783542811870575,20.062410354614258,98620,20.357419967651367,7339
