timestamp_ms,ax,ay,az,gx,gy,gz,latitude,longitude,altitude,satellite_count,position_lock,temperature,pressure,barometer_altitude,highg_ax,highg_ay,highg_az,extension,voltage_battery,bno_ax,bno_ay,bno_az,bno_gx,bno_gy,bno_gz,bno_mx,bno_my,bno_mz,bno_yaw,bno_pitch,bno_roll,magnet_mx,magnet_my,magnet_mz,gas_temp,gas_pressure,gas_humidity,gas_resistance,flight_states,kmn_pos_x,kmn_vel_x,kmn_acc_x,kmn_pos_y,kmn_vel_y,kmn_acc_y,kmn_pos_z,kmn_vel_z,kmn_acc_z
98800,-0.018055999651551247,-0.03903999924659729,1.035048007965088,1.6799999475479126,-3.5,-1.6799999475479126,32.93954086303711,-106.91143798828125,1401.696,19,True,38.06999969482422,888.3899536132812,1196.5933837890625,-0.009765625,0.05078125,1.087890625,12.703628540039062,8.07275390625,-0.0203857421875,0.0328369140625,-0.9102783203125,-0.0203857421875,0.0328369140625,-0.9102783203125,-0.0203857421875,0.0328369140625,-0.9102783203125,-0.01004491001367569,0.07666636258363724,-2.290853977203369,0.1262788623571396,0.019731072708964348,-1.4864075183868408,42.67557144165039,86164,10.391596794128418,708650,"['STATE_IDLE', 'STATE_IDLE', 'STATE_IDLE', 'STATE_IDLE']",1196.4158935546875,0.5367571711540222,0.3623239994049072,-215.66482543945312,-4.727302551269531,-0.03658991679549217,-5867.1328125,-122.63402557373047,-1.2836247682571411
98810,-0.018055999651551247,-0.03903999924659729,1.035048007965088,1.6799999475479126,-3.5,-1.6799999475479126,32.93954086303711,-106.91143798828125,1401.696,19,True,38.06999969482422,888.3899536132812,1196.5933837890625,-0.009765625,0.05078125,1.087890625,12.703628540039062,8.07275390625,-0.0203857421875,0.0328369140625,-0.9102783203125,-0.0203857421875,0.0328369140625,-0.9102783203125,-0.0203857421875,0.0328369140625,-0.9102783203125,-0.01004491001367569,0.07666636258363724,-2.290853977203369,0.1262788623571396,0.019731072708964348,-1.4864075183868408,42.67557144165039,86164,10.391596794128418,708650,"['STATE_IDLE', 'STATE_IDLE', 'STATE_IDLE', 'STATE_IDLE']",1196.4158935546875,0.5367571711540222,0.3623239994049072,-215.66482543945312,-4.727302551269531,-0.03658991679549217,-5867.1328125,-122.63402557373047,-1.2836247682571411
98820,-0.018055999651551247,-0.03903999924659729,1.035048007965088,1.6799999475479126,-3.5,-1.6799999475479126,32.93954086303711,-106.91143798828125,1401.696,19,True,37.95000076293945,888.3800048828125,1196.234130859375,-0.009765625,0.05078125,1.087890625,12.703628540039062,8.07275390625,-0.0203857421875,0.0328369140625,-0.9102783203125,-0.0203857421875,0.0328369140625,-0.9102783203125,-0.0203857421875,0.0328369140625,-0.9102783203125,-0.01004491001367569,0.07666636258363724,-2.290853977203369,0.12101724743843079,0.021484946832060814,-1.4878690242767334,42.67557144165039,86164,10.391596794128418,708650,"['STATE_IDLE', 'STATE_IDLE', 'STATE_IDLE', 'STATE_IDLE']",1196.4158935546875,0.5367571711540222,0.3623239994049072,-215.66482543945312,-4.727302551269531,-0.03658991679549217,-5867.1328125,-122.63402557373047,-1.2836247682571411
98830,-0.01317600067704916,-0.048312000930309296,1.0389519929885864,1.4700000286102295,-3.2200000286102295,-1.1200000047683716,32.93954086303711,-106.91143798828125,1401.696,19,True,37.95000076293945,888.3800048828125,1196.234130859375,-0.0078125,0.048828125,1.08984375,12.703628540039062,8.092089653015137,-0.0203857421875,0.0328369140625,-0.9102783203125,-0.0203857421875,0.0328369140625,-0.9102783203125,-0.0203857421875,0.0328369140625,-0.9102783203125,-0.01004491001367569,0.07666636258363724,-2.290853977203369,0.12101724743843079,0.021484946832060814,-1.4878690242767334,42.67557144165039,86164,10.391596794128418,708650,"['STATE_IDLE', 'STATE_IDLE', 'STATE_IDLE', 'STATE_IDLE']",1196.4732666015625,0.5731121897697449,0.3661557734012604,-216.36520385742188,-4.73417329788208,-0.042566195130348206,-5885.296875,-122.82488250732422,-1.2872145175933838
98840,-0.01317600067704916,-0.048312000930309296,1.0389519929885864,1.4700000286102295,-3.2200000286102295,-1.1200000047683716,32.93954086303711,-106.91143798828125,1401.696,19,True,37.95000076293945,888.3800048828125,1196.234130859375,-0.0078125,0.048828125,1.08984375,12.703628540039062,8.092089653015137,-0.0203857421875,0.0328369140625,-0.9102783203125,-0.0203857421875,0.0328369140625,-0.9102783203125,-0.0203857421875,0.0328369140625,-0.9102783203125,-0.01004491001367569,0.07666636258363724,-2.290853977203369,0.12101724743843079,0.021484946832060814,-1.4878690242767334,42.67557144165039,86164,10.391596794128418,708650,"['STATE_IDLE', 'STATE_IDLE', 'STATE_IDLE', 'STATE_IDLE']",1196.4732666015625,0.5731121897697449,0.3661557734012604,-216.36520385742188,-4.73417329788208,-0.042566195130348206,-5885.296875,-122.82488250732422,-1.2872145175933838
98850,-0.01317600067704916,-0.048312000930309296,1.0389519929885864,1.4700000286102295,-3.2200000286102295,-1.1200000047683716,32.93954086303711,-106.91143798828125,1401.696,19,True,37.95000076293945,888.3800048828125,1196.234130859375,-0.0078125,0.048828125,1.08984375,12.703628540039062,8.092089653015137,-0.0203857421875,0.0328369140625,-0.9102783203125,-0.0203857421875,0.0328369140625,-0.9102783203125,-0.0203857421875,0.0328369140625,-0.9102783203125,-0.01004491001367569,0.07666636258363724,-2.290853977203369,0.12101724743843079,0.021484946832060814,-1.4878690242767334,42.67557144165039,86164,10.391596794128418,708650,"['STATE_IDLE', 'STATE_IDLE', 'STATE_IDLE', 'STATE_IDLE']",1196.4732666015625,0.5731121897697449,0.3661557734012604,-216.36520385742188,-4.73417329788208,-0.042566195130348206,-5885.296875,-122.82488250732422,-1.2872145175933838
98860,-0.01317600067704916,-0.048312000930309296,1.0389519929885864,1.4700000286102295,-3.2200000286102295,-1.1200000047683716,32.93954086303711,-106.91143798828125,1401.696,19,True,37.95000076293945,888.3800048828125,1196.234130859375,-0.0078125,0.048828125,1.08984375,12.703628540039062,8.092089653015137,-0.0203857421875,0.0328369140625,-0.9102783203125,-0.0203857421875,0.0328369140625,-0.9102783203125,-0.0203857421875,0.0328369140625,-0.9102783203125,-0.01004491001367569,0.07666636258363724,-2.290853977203369,0.12101724743843079,0.021484946832060814,-1.4878690242767334,42.67557144165039,86164,10.391596794128418,708650,"['STATE_IDLE', 'STATE_IDLE', 'STATE_IDLE', 'STATE_IDLE']",1196.4732666015625,0.5731121897697449,0.3661557734012604,-216.36520385742188,-4.73417329788208,-0.042566195130348206,-5885.296875,-122.82488250732422,-1.2872145175933838
98870,-0.01317600067704916,-0.048312000930309296,1.0389519929885864,1.4700000286102295,-3.2200000286102295,-1.1200000047683716,32.93954086303711,-106.91143798828125,1401.696,19,True,37.95000076293945,888.3800048828125,1196.234130859375,-0.0078125,0.048828125,1.08984375,12.703628540039062,8.092089653015137,-0.0203857421875,0.0328369140625,-0.9102783203125,-0.0203857421875,0.0328369140625,-0.9102783203125,-0.0203857421875,0.0328369140625,-0.9102783203125,-0.01004491001367569,0.07666636258363724,-2.290853977203369,0.12101724743843079,0.021484946832060814,-1.4878690242767334,42.67557144165039,86164,10.391596794128418,708650,"['STATE_IDLE', 'STATE_IDLE', 'STATE_IDLE', 'STATE_IDLE']",1196.4732666015625,0.5731121897697449,0.3661557734012604,-216.36520385742188,-4.73417329788208,-0.042566195130348206,-5885.296875,-122.82488250732422,-1.2872145175933838
98880,-0.01317600067704916,-0.048312000930309296,1.0389519929885864,1.4700000286102295,-3.2200000286102295,-1.1200000047683716,32.93954086303711,-106.91143798828125,1401.696,19,True,37.95000076293945,888.3800048828125,1196.234130859375,-0.0078125,0.048828125,1.08984375,12.703628540039062,8.092089653015137,-0.0203857421875,0.0328369140625,-0.9102783203125,-0.0203857421875,0.0328369140625,-0.9102783203125,-0.0203857421875,0.0328369140625,-0.9102783203125,-0.01004491001367569,0.07666636258363724,-2.290853977203369,0.12101724743843079,0.021484946832060814,-1.4878690242767334,42.67557144165039,86164,10.391596794128418,708650,"['STATE_IDLE', 'STATE_IDLE', 'STATE_IDLE', 'STATE_IDLE']",1196.4732666015625,0.5731121897697449,0.3661557734012604,-216.36520385742188,-4.73417329788208,-0.042566195130348206,-5885.296875,-122.82488250732422,-1.2872145175933838
98890,-0.01317600067704916,-0.048312000930309296,1.0389519929885864,1.4700000286102295,-3.2200000286102295,-1.1200000047683716,32.93954086303711,-106.91143798828125,1401.696,19,True,37.95000076293945,888.3800048828125,1196.234130859375,-0.0078125,0.048828125,1.08984375,12.703628540039062,8.092089653015137,-0.0203857421875,0.0328369140625,-0.9102783203125,-0.0203857421875,0.0328369140625,-0.9102783203125,-0.0203857421875,0.0328369140625,-0.9102783203125,-0.01004491001367569,0.07666636258363724,-2.290853977203369,0.12101724743843079,0.021484946832060814,-1.4878690242767334,42.67557144165039,86164,10.391596794128418,708650,"['STATE_IDLE', 'STATE_IDLE', 'STATE_IDLE', 'STATE_IDLE']",1196.4732666015625,0.5731121897697449,0.3661557734012604,-216.36520385742188,-4.73417329788208,-0.042566195130348206,-5885.296875,-122.82488250732422,-1.2872145175933838
98900,-0.01317600067704916,-0.048312000930309296,1.0389519929885864,1.4700000286102295,-3.2200000286102295,-1.1200000047683716,32.93954086303711,-106.91143798828125,1401.696,19,True,37.95000076293945,888.3800048828125,1196.234130859375,-0.0078125,0.048828125,1.08984375,12.703628540039062,8.092089653015137,-0.0203857421875,0.0328369140625,-0.9102783203125,-0.0203857421875,0.0328369140625,-0.9102783203125,-0.0203857421875,0.0328369140625,-0.9102783203125,-0.01004491001367569,0.07666636258363724,-2.290853977203369,0.12101724743843079,0.021484946832060814,-1.4878690242767334,42.67557144165039,86164,10.391596794128418,708650,"['STATE_IDLE', 'STATE_IDLE', 'STATE_IDLE', 'STATE_IDLE']",1196.4732666015625,0.5731121897697449,0.3661557734012604,-216.36520385742188,-4.73417329788208,-0.042566195130348206,-5885.296875,-122.82488250732422,-1.2872145175933838
98910,-0.01317600067704916,-0.048312000930309296,1.0389519929885864,1.4700000286102295,-3.2200000286102295,-1.1200000047683716,32.93954086303711,-106.91143798828125,1401.696,19,True,37.95000076293945,888.3800048828125,1196.234130859375,-0.0078125,0.048828125,1.08984375,12.703628540039062,8.092089653015137,-0.0203857421875,0.0328369140625,-0.9102783203125,-0.0203857421875,0.0328369140625,-0.9102783203125,-0.0203857421875,0.0328369140625,-0.9102783203125,-0.01004491001367569,0.07666636258363724,-2.290853977203369,0.12101724743843079,0.021484946832060814,-1.4878690242767334,42.67557144165039,86164,10.391596794128418,708650,"['STATE_IDLE', 'STATE_IDLE', 'STATE_IDLE', 'STATE_IDLE']",1196.4732666015625,0.5731121897697449,0.3661557734012604,-216.36520385742188,-4.73417329788208,-0.042566195130348206,-5885.296875,-122.82488250732422,-1.2872145175933838
98920,-0.01317600067704916,-0.048312000930309296,1.0389519929885864,1.4700000286102295,-3.2200000286102295,-1.1200000047683716,32.93954086303711,-106.91143798828125,1401.696,19,True,37.95000076293945,888.3800048828125,1196.234130859375,-0.0078125,0.048828125,1.08984375,12.703628540039062,8.092089653015137,-0.0203857421875,0.0328369140625,-0.9102783203125,-0.0203857421875,0.0328369140625,-0.9102783203125,-0.0203857421875,0.0328369140625,-0.9102783203125,-0.01004491001367569,0.07666636258363724,-2.290853977203369,0.12101724743843079,0.021484946832060814,-1.4878690242767334,42.67557144165039,86164,10.391596794128418,708650,"['STATE_IDLE', 'STATE_IDLE', 'STATE_IDLE', 'STATE_IDLE']",1196.4732666015625,0.5731121897697449,0.3661557734012604,-216.36520385742188,-4.73417329788208,-0.042566195130348206,-5885.296875,-122.82488250732422,-1.2872145175933838
98930,-0.01317600067704916,-0.048312000930309296,1.0389519929885864,1.4700000286102295,-3.2200000286102295,-1.1200000047683716,32.93954086303711,-106.91143798828125,1401.696,19,True,37.95000076293945,888.3800048828125,1196.234130859375,-0.0078125,0.048828125,1.08984375,12.703628540039062,8.092089653015137,-0.0203857421875,0.0328369140625,-0.9102783203125,-0.0203857421875,0.0328369140625,-0.9102783203125,-0.0203857421875,0.0328369140625,-0.9102783203125,-0.01004491001367569,0.07666636258363724,-2.290853977203369,0.12101724743843079,0.021484946832060814,-1.4878690242767334,42.67557144165039,86164,10.391596794128418,708650,"['STATE_IDLE', 'STATE_IDLE', 'STATE_IDLE', 'STATE_IDLE']",1196.4732666015625,0.5731121897697449,0.3661557734012604,-216.36520385742188,-4.73417329788208,-0.042566195130348206,-5885.296875,-122.82488250732422,-1.2872145175933838
98940,-0.01317600067704916,-0.048312000930309296,1.0389519929885864,1.4700000286102295,-3.2200000286102295,-1.1200000047683716,32.93954086303711,-106.91143798828125,1401.696,19,True,37.95000076293945,888.3800048828125,1196.234130859375,-0.0078125,0.048828125,1.08984375,12.703628540039062,8.092089653015137,-0.0203857421875,0.0328369140625,-0.9102783203125,-0.0203857421875,0.0328369140625,-0.9102783203125,-0.0203857421875,0.0328369140625,-0.9102783203125,-0.01004491001367569,0.07666636258363724,-2.290853977203369,0.12101724743843079,0.021484946832060814,-1.4878690242767334,42.67557144165039,86164,10.391596794128418,708650,"['STATE_IDLE', 'STATE_IDLE', 'STATE_IDLE', 'STATE_IDLE']",1196.4732666015625,0.5731121897697449,0.3661557734012604,-216.36520385742188,-4.73417329788208,-0.042566195130348206,-5885.296875,-122.82488250732422,-1.2872145175933838
98950,-0.01317600067704916,-0.048312000930309296,1.0389519929885864,1.4700000286102295,-3.2200000286102295,-1.1200000047683716,32.93954086303711,-106.91143798828125,1401.696,19,True,37.95000076293945,888.3800048828125,1196.234130859375,-0.0078125,0.048828125,1.08984375,12.703628540039062,8.092089653015137,-0.0203857421875,0.0328369140625,-0.9102783203125,-0.0203857421875,0.0328369140625,-0.9102783203125,-0.0203857421875,0.0328369140625,-0.9102783203125,-0.01004491001367569,0.07666636258363724,-2.290853977203369,0.12101724743843079,0.021484946832060814,-1.4878690242767334,42.67557144165039,86164,10.391596794128418,708650,"['STATE_IDLE', 'STATE_IDLE', 'STATE_IDLE', 'STATE_IDLE']",1196.4732666015625,0.5731121897697449,0.3661557734012604,-216.36520385742188,-4.73417329788208,-0.042566195130348206,-5885.296875,-122.82488250732422,-1.2872145175933838
98960,-0.01317600067704916,-0.048312000930309296,1.0389519929885864,1.4700000286102295,-3.2200000286102295,-1.1200000047683716,32.93954086303711,-106.91143798828125,1401.696,19,True,37.95000076293945,888.3800048828125,1196.234130859375,-0.0078125,0.048828125,1.08984375,12.703628540039062,8.092089653015137,-0.0203857421875,0.0328369140625,-0.9102783203125,-0.0203857421875,0.0328369140625,-0.9102783203125,-0.0203857421875,0.0328369140625,-0.9102783203125,-0.01004491001367569,0.07666636258363724,-2.290853977203369,0.12101724743843079,0.021484946832060814,-1.4878690242767334,42.67557144165039,86164,10.391596794128418,708650,"['STATE_IDLE', 'STATE_IDLE', 'STATE_IDLE', 'STATE_IDLE']",1196.4732666015625,0.5731121897697449,0.3661557734012604,-216.36520385742188,-4.73417329788208,-0.042566195130348206,-5885.296875,-122.82488250732422,-1.2872145175933838
98970,-0.018544001504778862,-0.04294399917125702,1.0077199935913086,1.4700000286102295,-3.2200000286102295,-1.1200000047683716,32.93954086303711,-106.91143798828125,1401.696,19,True,37.959999084472656,888.4099731445312,1195.9649658203125,-0.009765625,0.04296875,1.087890625,12.703628540039062,8.082422256469727,-0.0203857421875,0.0328369140625,-0.9102783203125,-0.0203857421875,0.0328369140625,-0.9102783203125,-0.0203857421875,0.0328369140625,-0.9102783203125,-0.01004491001367569,0.07666636258363724,-2.290853977203369,0.12540192902088165,0.021046478301286697,-1.4899152517318726,42.67462921142578,86164,10.411405563354492,708650,"['STATE_IDLE', 'STATE_IDLE', 'STATE_IDLE', 'STATE_IDLE']",1196.5006103515625,0.5884884595870972,0.35899072885513306,-216.7212677001953,-4.741097450256348,-0.05749833956360817,-5894.51220703125,-122.92054748535156,-1.28371000289917
98980,-0.018544001504778862,-0.04294399917125702,1.0077199935913086,1.4700000286102295,-3.2200000286102295,-1.1200000047683716,32.93954086303711,-106.91143798828125,1401.696,19,True,37.959999084472656,888.4099731445312,1195.9649658203125,-0.009765625,0.04296875,1.087890625,12.703628540039062,8.082422256469727,-0.0203857421875,0.0328369140625,-0.9102783203125,-0.0203857421875,0.0328369140625,-0.9102783203125,-0.0203857421875,0.0328369140625,-0.9102783203125,-0.01004491001367569,0.07666636258363724,-2.290853977203369,0.12540192902088165,0.021046478301286697,-1.4899152517318726,42.67462921142578,86164,10.411405563354492,708650,"['STATE_IDLE', 'STATE_IDLE', 'STATE_IDLE', 'STATE_IDLE']",1196.5006103515625,0.5884884595870972,0.35899072885513306,-216.7212677001953,-4.741097450256348,-0.05749833956360817,-5894.51220703125,-122.92054748535156,-1.28371000289917
98990,-0.018544001504778862,-0.04294399917125702,1.0077199935913086,1.4700000286102295,-3.2200000286102295,-1.1200000047683716,32.93954086303711,-106.91143798828125,1401.689,19,True,37.959999084472656,888.4099731445312,1195.9649658203125,-0.009765625,0.04296875,1.087890625,12.703628540039062,8.082422256469727,-0.0203857421875,0.0328369140625,-0.9102783203125,-0.0203857421875,0.0328369140625,-0.9102783203125,-0.0203857421875,0.0328369140625,-0.9102783203125,-0.01004491001367569,0.07666636258363724,-2.290853977203369,0.12540192902088165,0.021046478301286697,-1.4899152517318726,42.67462921142578,86164,10.411405563354492,708650,"['STATE_IDLE', 'STATE_IDLE', 'STATE_IDLE', 'STATE_IDLE']",1196.5006103515625,0.5884884595870972,0.35899072885513306,-216.7212677001953,-4.741097450256348,-0.05749833956360817,-5894.51220703125,-122.92054748535156,-1.28371000289917
99000,-0.018544001504778862,-0.04294399917125702,1.0077199935913086,1.4700000286102295,-3.2200000286102295,-1.1200000047683716,32.93954086303711,-106.91143798828125,1401.689,19,True,37.959999084472656,888.4099731445312,1195.9649658203125,-0.009765625,0.04296875,1.087890625,12.703628540039062,8.082422256469727,-0.0203857421875,0.0328369140625,-0.9102783203125,-0.0203857421875,0.0328369140625,-0.9102783203125,-0.0203857421875,0.0328369140625,-0.9102783203125,-0.01004491001367569,0.07666636258363724,-2.290853977203369,0.12540192902088165,0.021046478301286697,-1.4899152517318726,42.67462921142578,86164,10.411405563354492,708650,"['STATE_IDLE', 'STATE_IDLE', 'STATE_IDLE', 'STATE_IDLE']",1196.5006103515625,0.5884884595870972,0.35899072885513306,-216.7212677001953,-4.741097450256348,-0.05749833956360817,-5894.51220703125,-122.92054748535156,-1.28371000289917
99010,-0.017079999670386314,-0.04928800091147423,1.0369999408721924,1.75,-3.640000104904175,-1.9600000381469727,32.93954086303711,-106.91143798828125,1401.689,19,True,37.97999954223633,888.3800048828125,1196.3494873046875,-0.009765625,0.044921875,1.087890625,12.703628540039062,8.082422256469727,-0.0203857421875,0.0328369140625,-0.9102783203125,-0.0203857421875,0.0328369140625,-0.9102783203125,-0.0203857421875,0.0328369140625,-0.9102783203125,-0.01004491001367569,0.07666636258363724,-2.290853977203369,0.10537854582071304,0.022361882030963898,-1.4843612909317017,42.67462921142578,86164,10.411405563354492,708650,"['STATE_IDLE', 'STATE_IDLE', 'STATE_IDLE', 'STATE_IDLE']",1196.5006103515625,0.5884884595870972,0.35899072885513306,-216.7212677001953,-4.741097450256348,-0.05749833956360817,-5894.51220703125,-122.92054748535156,-1.28371000289917
99020,-0.017079999670386314,-0.04928800091147423,1.0369999408721924,1.75,-3.640000104904175,-1.9600000381469727,32.93954086303711,-106.91143798828125,1401.689,19,True,37.97999954223633,888.3800048828125,1196.3494873046875,-0.009765625,0.044921875,1.087890625,12.703628540039062,8.082422256469727,-0.0203857421875,0.0328369140625,-0.9102783203125,-0.0203857421875,0.0328369140625,-0.9102783203125,-0.0203857421875,0.0328369140625,-0.9102783203125,-0.01004491001367569,0.07666636258363724,-2.290853977203369,0.10537854582071304,0.022361882030963898,-1.4843612909317017,42.67462921142578,86164,10.411405563354492,708650,"['STATE_IDLE', 'STATE_IDLE', 'STATE_IDLE', 'STATE_IDLE']",1196.5006103515625,0.5884884595870972,0.35899072885513306,-216.7212677001953,-4.741097450256348,-0.05749833956360817,-5894.51220703125,-122.92054748535156,-1.28371000289917
99030,-0.017079999670386314,-0.04928800091147423,1.0369999408721924,1.75,-3.640000104904175,-1.9600000381469727,32.93954086303711,-106.91143798828125,1401.689,19,True,37.98999786376953,888.3999633789062,1196.1829833984375,-0.009765625,0.044921875,1.087890625,12.703628540039062,8.082422256469727,-0.0203857421875,0.0328369140625,-0.9102783203125,-0.0203857421875,0.0328369140625,-0.9102783203125,-0.0203857421875,0.0328369140625,-0.9102783203125,-0.01004491001367569,0.07666636258363724,-2.290853977203369,0.12204033881425858,0.01900029182434082,-1.4823150634765625,42.67462921142578,86164,10.411405563354492,708650,"['STATE_IDLE', 'STATE_IDLE', 'STATE_IDLE', 'STATE_IDLE']",1196.5006103515625,0.5884884595870972,0.35899072885513306,-216.7212677001953,-4.741097450256348,-0.05749833956360817,-5894.51220703125,-122.92054748535156,-1.28371000289917
99040,-0.017079999670386314,-0.04928800091147423,1.0369999408721924,1.75,-3.640000104904175,-1.9600000381469727,32.93954086303711,-106.91143798828125,1401.689,19,True,37.98999786376953,888.3999633789062,1196.1829833984375,-0.009765625,0.044921875,1.087890625,12.703628540039062,8.082422256469727,-0.0203857421875,0.0328369140625,-0.9102783203125,-0.0203857421875,0.0328369140625,-0.9102783203125,-0.0203857421875,0.0328369140625,-0.9102783203125,-0.01004491001367569,0.07666636258363724,-2.290853977203369,0.12204033881425858,0.01900029182434082,-1.4823150634765625,42.67462921142578,86164,10.411405563354492,708650,"['STATE_IDLE', 'STATE_IDLE', 'STATE_IDLE', 'STATE_IDLE']",1196.5006103515625,0.5884884595870972,0.35899072885513306,-216.7212677001953,-4.741097450256348,-0.05749833956360817,-5894.51220703125,-122.92054748535156,-1.28371000289917
99050,-0.008296000771224499,-0.04050400108098984,1.014064073562622,1.6100000143051147,-3.5,-0.9800000190734863,32.93954086303711,-106.91143798828125,1401.689,19,True,37.98999786376953,888.3999633789062,1196.1829833984375,-0.009765625,0.046875,1.0859375,12.703628540039062,8.101757049560547,-0.02032470703125,0.0328369140625,-0.9102783203125,-0.02032470703125,0.0328369140625,-0.9102783203125,-0.02032470703125,0.0328369140625,-0.9102783203125,-0.009938318282365799,0.07661738246679306,-2.2909696102142334,0.12204033881425858,0.01900029182434082,-1.4823150634765625,42.67462921142578,86164,10.411405563354492,708650,"['STATE_IDLE', 'STATE_IDLE', 'STATE_IDLE', 'STATE_IDLE']",1196.5042724609375,0.5899022817611694,0.3734891712665558,-216.98745727539062,-4.746822834014893,-0.06754200160503387,-5901.39794921875,-122.99201202392578,-1.282038688659668
99060,-0.008296000771224499,-0.04050400108098984,1.014064073562622,1.6100000143051147,-3.5,-0.9800000190734863,32.93954086303711,-106.91143798828125,1401.689,19,True,37.98999786376953,888.3999633789062,1196.1829833984375,-0.009765625,0.046875,1.0859375,12.703628540039062,8.101757049560547,-0.02032470703125,0.0328369140625,-0.9102783203125,-0.02032470703125,0.0328369140625,-0.9102783203125,-0.02032470703125,0.0328369140625,-0.9102783203125,-0.009938318282365799,0.07661738246679306,-2.2909696102142334,0.12204033881425858,0.01900029182434082,-1.4823150634765625,42.67462921142578,86164,10.411405563354492,708650,"['STATE_IDLE', 'STATE_IDLE', 'STATE_IDLE', 'STATE_IDLE']",1196.5042724609375,0.5899022817611694,0.3734891712665558,-216.98745727539062,-4.746822834014893,-0.06754200160503387,-5901.39794921875,-122.99201202392578,-1.282038688659668
99070,-0.008296000771224499,-0.04050400108098984,1.014064073562622,1.6100000143051147,-3.5,-0.9800000190734863,32.93954086303711,-106.91143798828125,1401.689,19,True,38.0,888.3999633789062,1196.221435546875,-0.009765625,0.046875,1.0859375,12.703628540039062,8.101757049560547,-0.02032470703125,0.0328369140625,-0.9102783203125,-0.02032470703125,0.0328369140625,-0.9102783203125,-0.02032470703125,0.0328369140625,-0.9102783203125,-0.009938318282365799,0.07661738246679306,-2.2909696102142334,0.12730196118354797,0.02002338506281376,-1.485092043876648,42.67462921142578,86164,10.411405563354492,708650,"['STATE_IDLE', 'STATE_IDLE', 'STATE_IDLE', 'STATE_IDLE']",1196.5042724609375,0.5899022817611694,0.3734891712665558,-216.98745727539062,-4.746822834014893,-0.06754200160503387,-5901.39794921875,-122.99201202392578,-1.282038688659668
99080,-0.011711999773979187,-0.04636000096797943,1.0106480121612549,1.5399999618530273,-3.5,-1.5399999618530273,32.93954086303711,-106.91143798828125,1401.689,19,True,38.0,888.3999633789062,1196.221435546875,-0.009765625,0.044921875,1.091796875,12.703628540039062,8.092089653015137,-0.02032470703125,0.0328369140625,-0.9102783203125,-0.02032470703125,0.0328369140625,-0.9102783203125,-0.02032470703125,0.0328369140625,-0.9102783203125,-0.009938318282365799,0.07661738246679306,-2.2909696102142334,0.12730196118354797,0.02002338506281376,-1.485092043876648,42.67462921142578,86164,10.411405563354492,708650,"['STATE_IDLE', 'STATE_IDLE', 'STATE_IDLE', 'STATE_IDLE']",1196.5042724609375,0.5899022817611694,0.3734891712665558,-216.98745727539062,-4.746822834014893,-0.06754200160503387,-5901.39794921875,-122.99201202392578,-1.282038688659668
99090,-0.011711999773979187,-0.04636000096797943,1.0106480121612549,1.5399999618530273,-3.5,-1.5399999618530273,32.93954086303711,-106.91143798828125,1401.689,19,True,38.0,888.3999633789062,1196.221435546875,-0.009765625,0.044921875,1.091796875,12.703628540039062,8.092089653015137,-0.02032470703125,0.0328369140625,-0.9102783203125,-0.02032470703125,0.0328369140625,-0.9102783203125,-0.02032470703125,0.0328369140625,-0.9102783203125,-0.009938318282365799,0.07661738246679306,-2.2909696102142334,0.12730196118354797,0.02002338506281376,-1.485092043876648,42.67462921142578,86164,10.411405563354492,708650,"['STATE_IDLE', 'STATE_IDLE', 'STATE_IDLE', 'STATE_IDLE']",1196.5042724609375,0.5899022817611694,0.3734891712665558,-216.98745727539062,-4.746822834014893,-0.06754200160503387,-5901.39794921875,-122.99201202392578,-1.282038688659668
99100,-0.022447999566793442,-0.04977600276470184,1.019919991493225,1.75,-3.7799999713897705,-0.8399999737739563,32.93954086303711,-106.91143798828125,1401.689,19,True,38.02000045776367,888.3800048828125,1196.503173828125,-0.01171875,0.046875,1.087890625,12.703628540039062,8.082422256469727,-0.02032470703125,0.0328369140625,-0.9102783203125,-0.02032470703125,0.0328369140625,-0.9102783203125,-0.02032470703125,0.0328369140625,-0.9102783203125,-0.009938318282365799,0.07661738246679306,-2.2909696102142334,0.12671732902526855,0.018415667116642,-1.4956153631210327,42.67462921142578,86164,10.411405563354492,708650,"['STATE_IDLE', 'STATE_IDLE', 'STATE_IDLE', 'STATE_IDLE']",1196.4521484375,0.5541115403175354,0.3877342641353607,-217.2576904296875,-4.748834609985352,-0.060054339468479156,-5908.41015625,-123.06370544433594,-1.2764064073562622
99110,-0.022447999566793442,-0.04977600276470184,1.019919991493225,1.75,-3.7799999713897705,-0.8399999737739563,32.93954086303711,-106.91143798828125,1401.689,19,True,38.02000045776367,888.3800048828125,1196.503173828125,-0.01171875,0.046875,1.087890625,12.703628540039062,8.082422256469727,-0.02032470703125,0.0328369140625,-0.9102783203125,-0.02032470703125,0.0328369140625,-0.9102783203125,-0.02032470703125,0.0328369140625,-0.9102783203125,-0.009938318282365799,0.07661738246679306,-2.2909696102142334,0.12671732902526855,0.018415667116642,-1.4956153631210327,42.67462921142578,86164,10.411405563354492,708650,"['STATE_IDLE', 'STATE_IDLE', 'STATE_IDLE', 'STATE_IDLE']",1196.4521484375,0.5541115403175354,0.3877342641353607,-217.2576904296875,-4.748834609985352,-0.060054339468479156,-5908.41015625,-123.06370544433594,-1.2764064073562622
99120,-0.022447999566793442,-0.04977600276470184,1.019919991493225,1.75,-3.7799999713897705,-0.8399999737739563,32.93954086303711,-106.91143798828125,1401.689,19,True,38.02000045776367,888.3800048828125,1196.503173828125,-0.01171875,0.046875,1.087890625,12.703628540039062,8.082422256469727,-0.02032470703125,0.0328369140625,-0.9102783203125,-0.02032470703125,0.0328369140625,-0.9102783203125,-0.02032470703125,0.0328369140625,-0.9102783203125,-0.009938318282365799,0.07661738246679306,-2.2909696102142334,0.12671732902526855,0.018415667116642,-1.4956153631210327,42.67462921142578,86164,10.411405563354492,708650,"['STATE_IDLE', 'STATE_IDLE', 'STATE_IDLE', 'STATE_IDLE']",1196.4521484375,0.5541115403175354,0.3877342641353607,-217.2576904296875,-4.748834609985352,-0.060054339468479156,-5908.41015625,-123.06370544433594,-1.2764064073562622
99130,-0.02000799961388111,-0.04782400280237198,1.0340720415115356,1.8200000524520874,-3.7799999713897705,-1.9600000381469727,32.93954086303711,-106.91143798828125,1401.689,19,True,38.029998779296875,888.469970703125,1195.61962890625,-0.01171875,0.05078125,1.09375,12.703628540039062,8.07275390625,-0.02032470703125,0.0328369140625,-0.9102783203125,-0.02032470703125,0.0328369140625,-0.9102783203125,-0.02032470703125,0.0328369140625,-0.9102783203125,-0.009938318282365799,0.07661738246679306,-2.2909696102142334,0.12233265489339828,0.019877228885889053,-1.4836305379867554,42.67462921142578,86164,10.411405563354492,708650,"['STATE_IDLE', 'STATE_IDLE', 'STATE_IDLE', 'STATE_IDLE']",1196.4521484375,0.5541115403175354,0.3877342641353607,-217.2576904296875,-4.748834609985352,-0.060054339468479156,-5908.41015625,-123.06370544433594,-1.2764064073562622
99140,-0.02000799961388111,-0.04782400280237198,1.0340720415115356,1.8200000524520874,-3.7799999713897705,-1.9600000381469727,32.93954086303711,-106.91143798828125,1401.689,19,True,38.029998779296875,888.469970703125,1195.61962890625,-0.01171875,0.05078125,1.09375,12.703628540039062,8.07275390625,-0.02032470703125,0.0328369140625,-0.9102783203125,-0.02032470703125,0.0328369140625,-0.9102783203125,-0.02032470703125,0.0328369140625,-0.9102783203125,-0.009938318282365799,0.07661738246679306,-2.2909696102142334,0.12233265489339828,0.019877228885889053,-1.4836305379867554,42.67462921142578,86164,10.411405563354492,708650,"['STATE_IDLE', 'STATE_IDLE', 'STATE_IDLE', 'STATE_IDLE']",1196.4521484375,0.5541115403175354,0.3877342641353607,-217.2576904296875,-4.748834609985352,-0.060054339468479156,-5908.41015625,-123.06370544433594,-1.2764064073562622
99150,-0.02000799961388111,-0.04782400280237198,1.0340720415115356,1.8200000524520874,-3.7799999713897705,-1.9600000381469727,32.93954086303711,-106.91143798828125,1401.689,19,True,38.029998779296875,888.469970703125,1195.61962890625,-0.01171875,0.05078125,1.09375,12.703628540039062,8.07275390625,-0.02032470703125,0.0328369140625,-0.9102783203125,-0.02032470703125,0.0328369140625,-0.9102783203125,-0.02032470703125,0.0328369140625,-0.9102783203125,-0.009938318282365799,0.07661738246679306,-2.2909696102142334,0.12233265489339828,0.019877228885889053,-1.4836305379867554,42.67462921142578,86164,10.411405563354492,708650,"['STATE_IDLE', 'STATE_IDLE', 'STATE_IDLE', 'STATE_IDLE']",1196.4521484375,0.5541115403175354,0.3877342641353607,-217.2576904296875,-4.748834609985352,-0.060054339468479156,-5908.41015625,-123.06370544433594,-1.2764064073562622
99160,-0.01317600067704916,-0.045872002840042114,1.0374879837036133,1.6799999475479126,-3.8499999046325684,-1.2599999904632568,32.93954086303711,-106.91143798828125,1401.689,19,True,38.040000915527344,888.4299926757812,1196.0677490234375,-0.013671875,0.05078125,1.09375,12.703628540039062,8.063085556030273,-0.02032470703125,0.0328369140625,-0.9102783203125,-0.02032470703125,0.0328369140625,-0.9102783203125,-0.02032470703125,0.0328369140625,-0.9102783203125,-0.009938318282365799,0.07661738246679306,-2.2909696102142334,0.12540192902088165,0.013884829357266426,-1.4885997772216797,42.67462921142578,86164,10.411405563354492,708650,"['STATE_IDLE', 'STATE_IDLE', 'STATE_IDLE', 'STATE_IDLE']",1196.4757080078125,0.5689748525619507,0.37365686893463135,-217.54269409179688,-4.752291202545166,-0.059442825615406036,-5915.79541015625,-123.13674926757812,-1.261680245399475
99170,-0.01317600067704916,-0.045872002840042114,1.0374879837036133,1.6799999475479126,-3.8499999046325684,-1.2599999904632568,32.93954086303711,-106.91143798828125,1401.689,19,True,38.040000915527344,888.4299926757812,1196.0677490234375,-0.013671875,0.05078125,1.09375,12.703628540039062,8.063085556030273,-0.02032470703125,0.0328369140625,-0.9102783203125,-0.02032470703125,0.0328369140625,-0.9102783203125,-0.02032470703125,0.0328369140625,-0.9102783203125,-0.009938318282365799,0.07661738246679306,-2.2909696102142334,0.12540192902088165,0.013884829357266426,-1.4885997772216797,42.67462921142578,86164,10.411405563354492,708650,"['STATE_IDLE', 'STATE_IDLE', 'STATE_IDLE', 'STATE_IDLE']",1196.4757080078125,0.5689748525619507,0.37365686893463135,-217.54269409179688,-4.752291202545166,-0.059442825615406036,-5915.79541015625,-123.13674926757812,-1.261680245399475
99180,-0.01317600067704916,-0.045872002840042114,1.0374879837036133,1.6799999475479126,-3.8499999046325684,-1.2599999904632568,32.93954086303711,-106.91143798828125,1401.689,19,True,38.040000915527344,888.3999633789062,1196.375244140625,-0.013671875,0.05078125,1.09375,12.703628540039062,8.063085556030273,-0.02032470703125,0.0328369140625,-0.9102783203125,-0.02032470703125,0.0328369140625,-0.9102783203125,-0.02032470703125,0.0328369140625,-0.9102783203125,-0.009938318282365799,0.07661738246679306,-2.2909696102142334,0.12540192902088165,0.013884829357266426,-1.4885997772216797,42.67462921142578,86164,10.411405563354492,708650,"['STATE_IDLE', 'STATE_IDLE', 'STATE_IDLE', 'STATE_IDLE']",1196.4757080078125,0.5689748525619507,0.37365686893463135,-217.54269409179688,-4.752291202545166,-0.059442825615406036,-5915.79541015625,-123.13674926757812,-1.261680245399475
99190,-0.011711999773979187,-0.04440800100564957,1.018455982208252,1.8200000524520874,-3.7799999713897705,-1.75,32.93954086303711,-106.91143798828125,1401.689,19,True,38.040000915527344,888.3999633789062,1196.375244140625,-0.015625,0.048828125,1.087890625,12.703628540039062,8.063085556030273,-0.02032470703125,0.0328369140625,-0.9102783203125,-0.02032470703125,0.0328369140625,-0.9102783203125,-0.02032470703125,0.0328369140625,-0.9102783203125,-0.009938318282365799,0.07661738246679306,-2.2909696102142334,0.1341712921857834,0.017538731917738914,-1.4862613677978516,42.67462921142578,86164,10.411405563354492,708650,"['STATE_IDLE', 'STATE_IDLE', 'STATE_IDLE', 'STATE_IDLE']",1196.4757080078125,0.5689748525619507,0.37365686893463135,-217.54269409179688,-4.752291202545166,-0.059442825615406036,-5915.79541015625,-123.13674926757812,-1.261680245399475
99200,-0.011711999773979187,-0.04440800100564957,1.018455982208252,1.8200000524520874,-3.7799999713897705,-1.75,32.93954086303711,-106.91143798828125,1401.686,19,True,38.040000915527344,888.3999633789062,1196.375244140625,-0.015625,0.048828125,1.087890625,12.703628540039062,8.063085556030273,-0.02032470703125,0.0328369140625,-0.9102783203125,-0.02032470703125,0.0328369140625,-0.9102783203125,-0.02032470703125,0.0328369140625,-0.9102783203125,-0.009938318282365799,0.07661738246679306,-2.2909696102142334,0.1341712921857834,0.017538731917738914,-1.4862613677978516,42.67462921142578,86164,10.411405563354492,708650,"['STATE_IDLE', 'STATE_IDLE', 'STATE_IDLE', 'STATE_IDLE']",1196.4757080078125,0.5689748525619507,0.37365686893463135,-217.54269409179688,-4.752291202545166,-0.059442825615406036,-5915.79541015625,-123.13674926757812,-1.261680245399475
99210,-0.011711999773979187,-0.04440800100564957,1.018455982208252,1.8200000524520874,-3.7799999713897705,-1.75,32.93954086303711,-106.91143798828125,1401.686,19,True,38.040000915527344,888.3999633789062,1196.375244140625,-0.015625,0.048828125,1.087890625,12.703628540039062,8.063085556030273,-0.02032470703125,0.0328369140625,-0.9102783203125,-0.02032470703125,0.0328369140625,-0.9102783203125,-0.02032470703125,0.0328369140625,-0.9102783203125,-0.009938318282365799,0.07661738246679306,-2.2909696102142334,0.1341712921857834,0.017538731917738914,-1.4862613677978516,42.67462921142578,86164,10.411405563354492,708650,"['STATE_IDLE', 'STATE_IDLE', 'STATE_IDLE', 'STATE_IDLE']",1196.4757080078125,0.5689748525619507,0.37365686893463135,-217.54269409179688,-4.752291202545166,-0.059442825615406036,-5915.79541015625,-123.13674926757812,-1.261680245399475
99220,-0.02000799961388111,-0.043432001024484634,1.0169919729232788,1.6100000143051147,-3.569999933242798,-1.0499999523162842,32.93954086303711,-106.91143798828125,1401.686,19,True,38.040000915527344,888.4299926757812,1196.0677490234375,-0.013671875,0.046875,1.083984375,12.703628540039062,8.082422256469727,-0.02032470703125,0.0328369140625,-0.9102783203125,-0.02032470703125,0.0328369140625,-0.9102783203125,-0.02032470703125,0.0328369140625,-0.9102783203125,-0.009938318282365799,0.07661738246679306,-2.2909696102142334,0.12774042785167694,0.02455422468483448,-1.4821689128875732,42.68246078491211,86165,10.401772499084473,708650,"['STATE_IDLE', 'STATE_IDLE', 'STATE_IDLE', 'STATE_IDLE']",1196.5738525390625,0.6322336792945862,0.34965765476226807,-217.80862426757812,-4.754440784454346,-0.05443783104419708,-5922.69287109375,-123.20796966552734,-1.2640695571899414
99230,-0.02000799961388111,-0.043432001024484634,1.0169919729232788,1.6100000143051147,-3.569999933242798,-1.0499999523162842,32.93954086303711,-106.91143798828125,1401.686,19,True,38.040000915527344,888.4299926757812,1196.0677490234375,-0.013671875,0.046875,1.083984375,12.703628540039062,8.082422256469727,-0.02032470703125,0.0328369140625,-0.9102783203125,-0.02032470703125,0.0328369140625,-0.9102783203125,-0.02032470703125,0.0328369140625,-0.9102783203125,-0.009938318282365799,0.07661738246679306,-2.2909696102142334,0.12774042785167694,0.02455422468483448,-1.4821689128875732,42.68246078491211,86165,10.401772499084473,708650,"['STATE_IDLE', 'STATE_IDLE', 'STATE_IDLE', 'STATE_IDLE']",1196.5738525390625,0.6322336792945862,0.34965765476226807,-217.80862426757812,-4.754440784454346,-0.05443783104419708,-5922.69287109375,-123.20796966552734,-1.2640695571899414
99240,-0.02000799961388111,-0.043432001024484634,1.0169919729232788,1.6100000143051147,-3.569999933242798,-1.0499999523162842,32.93954086303711,-106.91143798828125,1401.686,19,True,38.040000915527344,888.4299926757812,1196.0677490234375,-0.013671875,0.046875,1.083984375,12.703628540039062,8.082422256469727,-0.02032470703125,0.0328369140625,-0.9102783203125,-0.02032470703125,0.0328369140625,-0.9102783203125,-0.02032470703125,0.0328369140625,-0.9102783203125,-0.009938318282365799,0.07661738246679306,-2.2909696102142334,0.12774042785167694,0.02455422468483448,-1.4821689128875732,42.68246078491211,86165,10.401772499084473,708650,"['STATE_IDLE', 'STATE_IDLE', 'STATE_IDLE', 'STATE_IDLE']",1196.5738525390625,0.6322336792945862,0.34965765476226807,-217.80862426757812,-4.754440784454346,-0.05443783104419708,-5922.69287109375,-123.20796966552734,-1.2640695571899414
99250,-0.018544001504778862,-0.03903999924659729,1.0257760286331177,1.6799999475479126,-3.7100000381469727,-1.6799999475479126,32.93954086303711,-106.91143798828125,1401.686,19,True,38.04999923706055,888.3200073242188,1197.2330322265625,-0.009765625,0.05078125,1.083984375,12.703628540039062,8.063085556030273,-0.02032470703125,0.0328369140625,-0.9102783203125,-0.02032470703125,0.0328369140625,-0.9102783203125,-0.02032470703125,0.0328369140625,-0.9102783203125,-0.009938318282365799,0.07661738246679306,-2.2909696102142334,0.13724057376384735,0.018561823293566704,-1.4894767999649048,42.68246078491211,86165,10.401772499084473,708650,"['STATE_IDLE', 'STATE_IDLE', 'STATE_IDLE', 'STATE_IDLE']",1196.5738525390625,0.6322336792945862,0.34965765476226807,-217.80862426757812,-4.754440784454346,-0.05443783104419708,-5922.69287109375,-123.20796966552734,-1.2640695571899414
99260,-0.018544001504778862,-0.03903999924659729,1.0257760286331177,1.6799999475479126,-3.7100000381469727,-1.6799999475479126,32.93954086303711,-106.91143798828125,1401.686,19,True,38.04999923706055,888.3200073242188,1197.2330322265625,-0.009765625,0.05078125,1.083984375,12.703628540039062,8.063085556030273,-0.02032470703125,0.0328369140625,-0.9102783203125,-0.02032470703125,0.0328369140625,-0.9102783203125,-0.02032470703125,0.0328369140625,-0.9102783203125,-0.009938318282365799,0.07661738246679306,-2.2909696102142334,0.13724057376384735,0.018561823293566704,-1.4894767999649048,42.68246078491211,86165,10.401772499084473,708650,"['STATE_IDLE', 'STATE_IDLE', 'STATE_IDLE', 'STATE_IDLE']",1196.5738525390625,0.6322336792945862,0.34965765476226807,-217.80862426757812,-4.754440784454346,-0.05443783104419708,-5922.69287109375,-123.20796966552734,-1.2640695571899414
99270,-0.018544001504778862,-0.03903999924659729,1.0257760286331177,1.6799999475479126,-3.7100000381469727,-1.6799999475479126,32.93954086303711,-106.91143798828125,1401.686,19,True,38.06999969482422,888.4299926757812,1196.18310546875,-0.009765625,0.05078125,1.083984375,12.703628540039062,8.063085556030273,-0.02032470703125,0.0328369140625,-0.9102783203125,-0.02032470703125,0.0328369140625,-0.9102783203125,-0.02032470703125,0.0328369140625,-0.9102783203125,-0.009938318282365799,0.07661738246679306,-2.2909696102142334,0.12379421293735504,0.026600409299135208,-1.4951767921447754,42.68246078491211,86165,10.401772499084473,708650,"['STATE_IDLE', 'STATE_IDLE', 'STATE_IDLE', 'STATE_IDLE']",1196.5738525390625,0.6322336792945862,0.34965765476226807,-217.80862426757812,-4.754440784454346,-0.05443783104419708,-5922.69287109375,-123.20796966552734,-1.2640695571899414
99280,-0.014152000658214092,-0.04148000106215477,1.0326080322265625,1.6100000143051147,-3.640000104904175,-0.9800000190734863,32.93954086303711,-106.91143798828125,1401.686,19,True,38.06999969482422,888.4299926757812,1196.18310546875,-0.009765625,0.05078125,1.083984375,12.703628540039062,8.082422256469727,-0.02032470703125,0.0328369140625,-0.9102783203125,-0.02032470703125,0.0328369140625,-0.9102783203125,-0.02032470703125,0.0328369140625,-0.9102783203125,-0.009938318282365799,0.07661738246679306,-2.2909696102142334,0.12379421293735504,0.026600409299135208,-1.4951767921447754,42.68246078491211,86165,10.401772499084473,708650,"['STATE_IDLE', 'STATE_IDLE', 'STATE_IDLE', 'STATE_IDLE']",1196.5357666015625,0.5989355444908142,0.32245633006095886,-218.08477783203125,-4.758877754211426,-0.05997662618756294,-5929.8408203125,-123.28162384033203,-1.2655121088027954
99290,-0.014152000658214092,-0.04148000106215477,1.0326080322265625,1.6100000143051147,-3.640000104904175,-0.9800000190734863,32.93954086303711,-106.91143798828125,1401.686,19,True,38.06999969482422,888.4299926757812,1196.18310546875,-0.009765625,0.05078125,1.083984375,12.703628540039062,8.082422256469727,-0.02032470703125,0.0328369140625,-0.9102783203125,-0.02032470703125,0.0328369140625,-0.9102783203125,-0.02032470703125,0.0328369140625,-0.9102783203125,-0.009938318282365799,0.07661738246679306,-2.2909696102142334,0.12379421293735504,0.026600409299135208,-1.4951767921447754,42.68246078491211,86165,10.401772499084473,708650,"['STATE_IDLE', 'STATE_IDLE', 'STATE_IDLE', 'STATE_IDLE']",1196.5357666015625,0.5989355444908142,0.32245633006095886,-218.08477783203125,-4.758877754211426,-0.05997662618756294,-5929.8408203125,-123.28162384033203,-1.2655121088027954
99300,-0.011223999783396721,-0.04050400108098984,1.0335839986801147,1.6799999475479126,-3.7799999713897705,-1.399999976158142,32.93954086303711,-106.91143798828125,1401.686,19,True,38.06999969482422,888.469970703125,1195.7733154296875,-0.009765625,0.046875,1.08203125,12.703628540039062,8.101757049560547,-0.02032470703125,0.0328369140625,-0.9102783203125,-0.02032470703125,0.0328369140625,-0.9102783203125,-0.02032470703125,0.0328369140625,-0.9102783203125,-0.009938318282365799,0.07661738246679306,-2.2909696102142334,0.12847121059894562,0.021046478301286697,-1.4891844987869263,42.68246078491211,86165,10.401772499084473,708650,"['STATE_IDLE', 'STATE_IDLE', 'STATE_IDLE', 'STATE_IDLE']",1196.5357666015625,0.5989355444908142,0.32245633006095886,-218.08477783203125,-4.758877754211426,-0.05997662618756294,-5929.8408203125,-123.28162384033203,-1.2655121088027954
99310,-0.011223999783396721,-0.04050400108098984,1.0335839986801147,1.6799999475479126,-3.7799999713897705,-1.399999976158142,32.93954086303711,-106.91143798828125,1401.686,19,True,38.06999969482422,888.469970703125,1195.7733154296875,-0.009765625,0.046875,1.08203125,12.703628540039062,8.101757049560547,-0.02032470703125,0.0328369140625,-0.9102783203125,-0.02032470703125,0.0328369140625,-0.9102783203125,-0.02032470703125,0.0328369140625,-0.9102783203125,-0.009938318282365799,0.07661738246679306,-2.2909696102142334,0.12847121059894562,0.021046478301286697,-1.4891844987869263,42.68246078491211,86165,10.401772499084473,708650,"['STATE_IDLE', 'STATE_IDLE', 'STATE_IDLE', 'STATE_IDLE']",1196.5357666015625,0.5989355444908142,0.32245633006095886,-218.08477783203125,-4.758877754211426,-0.05997662618756294,-5929.8408203125,-123.28162384033203,-1.2655121088027954
99320,-0.011223999783396721,-0.04050400108098984,1.0335839986801147,1.6799999475479126,-3.7799999713897705,-1.399999976158142,32.93954086303711,-106.91143798828125,1401.686,19,True,38.06999969482422,888.469970703125,1195.7733154296875,-0.009765625,0.046875,1.08203125,12.703628540039062,8.101757049560547,-0.02032470703125,0.0328369140625,-0.9102783203125,-0.02032470703125,0.0328369140625,-0.9102783203125,-0.02032470703125,0.0328369140625,-0.9102783203125,-0.009938318282365799,0.07661738246679306,-2.2909696102142334,0.12847121059894562,0.021046478301286697,-1.4891844987869263,42.68246078491211,86165,10.401772499084473,708650,"['STATE_IDLE', 'STATE_IDLE', 'STATE_IDLE', 'STATE_IDLE']",1196.5357666015625,0.5989355444908142,0.32245633006095886,-218.08477783203125,-4.758877754211426,-0.05997662618756294,-5929.8408203125,-123.28162384033203,-1.2655121088027954
99330,-0.016103999689221382,-0.044895999133586884,1.0272400379180908,1.6799999475479126,-3.7100000381469727,-1.6100000143051147,32.93954086303711,-106.91143798828125,1401.686,19,True,37.95000076293945,888.4400024414062,1195.619140625,-0.005859375,0.05078125,1.08984375,12.703628540039062,8.101757049560547,-0.02032470703125,0.0328369140625,-0.9102783203125,-0.02032470703125,0.0328369140625,-0.9102783203125,-0.02032470703125,0.0328369140625,-0.9102783203125,-0.009938318282365799,0.07661738246679306,-2.2909696102142334,0.12145571410655975,0.01666179485619068,-1.4906460046768188,42.68246078491211,86165,10.401772499084473,708650,"['STATE_IDLE', 'STATE_IDLE', 'STATE_IDLE', 'STATE_IDLE']",1196.5289306640625,0.5820262432098389,0.34418752789497375,-218.7941436767578,-4.766211032867432,-0.05340776965022087,-5948.22509765625,-123.4737777709961,-1.2802519798278809
99340,-0.016103999689221382,-0.044895999133586884,1.0272400379180908,1.6799999475479126,-3.7100000381469727,-1.6100000143051147,32.93954086303711,-106.91143798828125,1401.686,19,True,37.95000076293945,888.4400024414062,1195.619140625,-0.005859375,0.05078125,1.08984375,12.703628540039062,8.101757049560547,-0.02032470703125,0.0328369140625,-0.9102783203125,-0.02032470703125,0.0328369140625,-0.9102783203125,-0.02032470703125,0.0328369140625,-0.9102783203125,-0.009938318282365799,0.07661738246679306,-2.2909696102142334,0.12145571410655975,0.01666179485619068,-1.4906460046768188,42.68246078491211,86165,10.401772499084473,708650,"['STATE_IDLE', 'STATE_IDLE', 'STATE_IDLE', 'STATE_IDLE']",1196.5289306640625,0.5820262432098389,0.34418752789497375,-218.7941436767578,-4.766211032867432,-0.05340776965022087,-5948.22509765625,-123.4737777709961,-1.2802519798278809
99350,-0.016103999689221382,-0.044895999133586884,1.0272400379180908,1.6799999475479126,-3.7100000381469727,-1.6100000143051147,32.93954086303711,-106.91143798828125,1401.686,19,True,37.95000076293945,888.4400024414062,1195.619140625,-0.005859375,0.05078125,1.08984375,12.703628540039062,8.101757049560547,-0.02032470703125,0.0328369140625,-0.9102783203125,-0.02032470703125,0.0328369140625,-0.9102783203125,-0.02032470703125,0.0328369140625,-0.9102783203125,-0.009938318282365799,0.07661738246679306,-2.2909696102142334,0.12145571410655975,0.01666179485619068,-1.4906460046768188,42.68246078491211,86165,10.401772499084473,708650,"['STATE_IDLE', 'STATE_IDLE', 'STATE_IDLE', 'STATE_IDLE']",1196.5289306640625,0.5820262432098389,0.34418752789497375,-218.7941436767578,-4.766211032867432,-0.05340776965022087,-5948.22509765625,-123.4737777709961,-1.2802519798278809
99360,-0.016103999689221382,-0.044895999133586884,1.0272400379180908,1.6799999475479126,-3.7100000381469727,-1.6100000143051147,32.93954086303711,-106.91143798828125,1401.686,19,True,37.95000076293945,888.4400024414062,1195.619140625,-0.005859375,0.05078125,1.08984375,12.703628540039062,8.101757049560547,-0.02032470703125,0.0328369140625,-0.9102783203125,-0.02032470703125,0.0328369140625,-0.9102783203125,-0.02032470703125,0.0328369140625,-0.9102783203125,-0.009938318282365799,0.07661738246679306,-2.2909696102142334,0.12145571410655975,0.01666179485619068,-1.4906460046768188,42.68246078491211,86165,10.401772499084473,708650,"['STATE_IDLE', 'STATE_IDLE', 'STATE_IDLE', 'STATE_IDLE']",1196.5289306640625,0.5820262432098389,0.34418752789497375,-218.7941436767578,-4.766211032867432,-0.05340776965022087,-5948.22509765625,-123.4737777709961,-1.2802519798278809
99370,-0.016103999689221382,-0.044895999133586884,1.0272400379180908,1.6799999475479126,-3.7100000381469727,-1.6100000143051147,32.93954086303711,-106.91143798828125,1401.686,19,True,37.95000076293945,888.4400024414062,1195.619140625,-0.005859375,0.05078125,1.08984375,12.703628540039062,8.101757049560547,-0.02032470703125,0.0328369140625,-0.9102783203125,-0.02032470703125,0.0328369140625,-0.9102783203125,-0.02032470703125,0.0328369140625,-0.9102783203125,-0.009938318282365799,0.07661738246679306,-2.2909696102142334,0.12145571410655975,0.01666179485619068,-1.4906460046768188,42.68246078491211,86165,10.401772499084473,708650,"['STATE_IDLE', 'STATE_IDLE', 'STATE_IDLE', 'STATE_IDLE']",1196.5289306640625,0.5820262432098389,0.34418752789497375,-218.7941436767578,-4.766211032867432,-0.05340776965022087,-5948.22509765625,-123.4737777709961,-1.2802519798278809
99380,-0.016103999689221382,-0.044895999133586884,1.0272400379180908,1.6799999475479126,-3.7100000381469727,-1.6100000143051147,32.93954086303711,-106.91143798828125,1401.686,19,True,37.95000076293945,888.4400024414062,1195.619140625,-0.005859375,0.05078125,1.08984375,12.703628540039062,8.101757049560547,-0.02032470703125,0.0328369140625,-0.9102783203125,-0.02032470703125,0.0328369140625,-0.9102783203125,-0.02032470703125,0.0328369140625,-0.9102783203125,-0.009938318282365799,0.07661738246679306,-2.2909696102142334,0.12145571410655975,0.01666179485619068,-1.4906460046768188,42.68246078491211,86165,10.401772499084473,708650,"['STATE_IDLE', 'STATE_IDLE', 'STATE_IDLE', 'STATE_IDLE']",1196.5289306640625,0.5820262432098389,0.34418752789497375,-218.7941436767578,-4.766211032867432,-0.05340776965022087,-5948.22509765625,-123.4737777709961,-1.2802519798278809
99390,-0.016103999689221382,-0.044895999133586884,1.0272400379180908,1.6799999475479126,-3.7100000381469727,-1.6100000143051147,32.93954086303711,-106.91143798828125,1401.686,19,True,37.95000076293945,888.4400024414062,1195.619140625,-0.005859375,0.05078125,1.08984375,12.703628540039062,8.101757049560547,-0.02032470703125,0.0328369140625,-0.9102783203125,-0.02032470703125,0.0328369140625,-0.9102783203125,-0.02032470703125,0.0328369140625,-0.9102783203125,-0.009938318282365799,0.07661738246679306,-2.2909696102142334,0.12145571410655975,0.01666179485619068,-1.4906460046768188,42.68246078491211,86165,10.401772499084473,708650,"['STATE_IDLE', 'STATE_IDLE', 'STATE_IDLE', 'STATE_IDLE']",1196.5289306640625,0.5820262432098389,0.34418752789497375,-218.7941436767578,-4.766211032867432,-0.05340776965022087,-5948.22509765625,-123.4737777709961,-1.2802519798278809
99400,-0.016103999689221382,-0.044895999133586884,1.0272400379180908,1.6799999475479126,-3.7100000381469727,-1.6100000143051147,32.93954086303711,-106.91143798828125,1401.686,19,True,37.95000076293945,888.4400024414062,1195.619140625,-0.005859375,0.05078125,1.08984375,12.703628540039062,8.101757049560547,-0.02032470703125,0.0328369140625,-0.9102783203125,-0.02032470703125,0.0328369140625,-0.9102783203125,-0.02032470703125,0.0328369140625,-0.9102783203125,-0.009938318282365799,0.07661738246679306,-2.2909696102142334,0.12145571410655975,0.01666179485619068,-1.4906460046768188,42.68246078491211,86165,10.401772499084473,708650,"['STATE_IDLE', 'STATE_IDLE', 'STATE_IDLE', 'STATE_IDLE']",1196.5289306640625,0.5820262432098389,0.34418752789497375,-218.7941436767578,-4.766211032867432,-0.05340776965022087,-5948.22509765625,-123.4737777709961,-1.2802519798278809
99410,-0.016103999689221382,-0.044895999133586884,1.0272400379180908,1.6799999475479126,-3.7100000381469727,-1.6100000143051147,32.93954086303711,-106.91143798828125,1401.686,19,True,37.95000076293945,888.4400024414062,1195.619140625,-0.005859375,0.05078125,1.08984375,12.703628540039062,8.101757049560547,-0.02032470703125,0.0328369140625,-0.9102783203125,-0.02032470703125,0.0328369140625,-0.9102783203125,-0.02032470703125,0.0328369140625,-0.9102783203125,-0.009938318282365799,0.07661738246679306,-2.2909696102142334,0.12145571410655975,0.01666179485619068,-1.4906460046768188,42.68246078491211,86165,10.401772499084473,708650,"['STATE_IDLE', 'STATE_IDLE', 'STATE_IDLE', 'STATE_IDLE']",1196.5289306640625,0.5820262432098389,0.34418752789497375,-218.7941436767578,-4.766211032867432,-0.05340776965022087,-5948.22509765625,-123.4737777709961,-1.2802519798278809
99420,-0.016103999689221382,-0.044895999133586884,1.0272400379180908,1.6799999475479126,-3.7100000381469727,-1.6100000143051147,32.93954086303711,-106.91143798828125,1401.686,19,True,37.95000076293945,888.4400024414062,1195.619140625,-0.005859375,0.05078125,1.08984375,12.703628540039062,8.101757049560547,-0.02032470703125,0.0328369140625,-0.9102783203125,-0.02032470703125,0.0328369140625,-0.9102783203125,-0.02032470703125,0.0328369140625,-0.9102783203125,-0.009938318282365799,0.07661738246679306,-2.2909696102142334,0.12145571410655975,0.01666179485619068,-1.4906460046768188,42.68246078491211,86165,10.401772499084473,708650,"['STATE_IDLE', 'STATE_IDLE', 'STATE_IDLE', 'STATE_IDLE']",1196.5289306640625,0.5820262432098389,0.34418752789497375,-218.7941436767578,-4.766211032867432,-0.05340776965022087,-5948.22509765625,-123.4737777709961,-1.2802519798278809
99430,-0.016103999689221382,-0.044895999133586884,1.0272400379180908,1.6799999475479126,-3.7100000381469727,-1.6100000143051147,32.93954086303711,-106.91143798828125,1401.686,19,True,37.95000076293945,888.4400024414062,1195.619140625,-0.005859375,0.05078125,1.08984375,12.703628540039062,8.101757049560547,-0.02032470703125,0.0328369140625,-0.9102783203125,-0.02032470703125,0.0328369140625,-0.9102783203125,-0.02032470703125,0.0328369140625,-0.9102783203125,-0.009938318282365799,0.07661738246679306,-2.2909696102142334,0.12145571410655975,0.01666179485619068,-1.4906460046768188,42.68246078491211,86165,10.401772499084473,708650,"['STATE_IDLE', 'STATE_IDLE', 'STATE_IDLE', 'STATE_IDLE']",1196.5289306640625,0.5820262432098389,0.34418752789497375,-218.7941436767578,-4.766211032867432,-0.05340776965022087,-5948.22509765625,-123.4737777709961,-1.2802519798278809
99440,-0.016103999689221382,-0.044895999133586884,1.0272400379180908,1.6799999475479126,-3.7100000381469727,-1.6100000143051147,32.93954086303711,-106.91143798828125,1401.686,19,True,37.95000076293945,888.4400024414062,1195.619140625,-0.005859375,0.05078125,1.08984375,12.703628540039062,8.101757049560547,-0.02032470703125,0.0328369140625,-0.9102783203125,-0.02032470703125,0.0328369140625,-0.9102783203125,-0.02032470703125,0.0328369140625,-0.9102783203125,-0.009938318282365799,0.07661738246679306,-2.2909696102142334,0.12145571410655975,0.01666179485619068,-1.4906460046768188,42.68246078491211,86165,10.401772499084473,708650,"['STATE_IDLE', 'STATE_IDLE', 'STATE_IDLE', 'STATE_IDLE']",1196.5289306640625,0.5820262432098389,0.34418752789497375,-218.7941436767578,-4.766211032867432,-0.05340776965022087,-5948.22509765625,-123.4737777709961,-1.2802519798278809
99450,-0.016103999689221382,-0.044895999133586884,1.0272400379180908,1.6799999475479126,-3.7100000381469727,-1.6100000143051147,32.93954086303711,-106.91143798828125,1401.686,19,True,37.95000076293945,888.4400024414062,1195.619140625,-0.005859375,0.05078125,1.08984375,12.703628540039062,8.101757049560547,-0.02032470703125,0.0328369140625,-0.9102783203125,-0.02032470703125,0.0328369140625,-0.9102783203125,-0.02032470703125,0.0328369140625,-0.9102783203125,-0.009938318282365799,0.07661738246679306,-2.2909696102142334,0.12145571410655975,0.01666179485619068,-1.4906460046768188,42.68246078491211,86165,10.401772499084473,708650,"['STATE_IDLE', 'STATE_IDLE', 'STATE_IDLE', 'STATE_IDLE']",1196.5289306640625,0.5820262432098389,0.34418752789497375,-218.7941436767578,-4.766211032867432,-0.05340776965022087,-5948.22509765625,-123.4737777709961,-1.2802519798278809
99460,-0.016103999689221382,-0.044895999133586884,1.0272400379180908,1.6799999475479126,-3.7100000381469727,-1.6100000143051147,32.93954086303711,-106.91143798828125,1401.686,19,True,37.95000076293945,888.4400024414062,1195.619140625,-0.005859375,0.05078125,1.08984375,12.703628540039062,8.101757049560547,-0.02032470703125,0.0328369140625,-0.9102783203125,-0.02032470703125,0.0328369140625,-0.9102783203125,-0.02032470703125,0.0328369140625,-0.9102783203125,-0.009938318282365799,0.07661738246679306,-2.2909696102142334,0.12145571410655975,0.01666179485619068,-1.4906460046768188,42.68246078491211,86165,10.401772499084473,708650,"['STATE_IDLE', 'STATE_IDLE', 'STATE_IDLE', 'STATE_IDLE']",1196.5289306640625,0.5820262432098389,0.34418752789497375,-218.7941436767578,-4.766211032867432,-0.05340776965022087,-5948.22509765625,-123.4737777709961,-1.2802519798278809
99470,-0.016103999689221382,-0.044895999133586884,1.0272400379180908,1.6799999475479126,-3.7100000381469727,-1.6100000143051147,32.93954086303711,-106.91143798828125,1401.686,19,True,37.95000076293945,888.4400024414062,1195.619140625,-0.005859375,0.05078125,1.08984375,12.703628540039062,8.101757049560547,-0.02032470703125,0.0328369140625,-0.9102783203125,-0.02032470703125,0.0328369140625,-0.9102783203125,-0.02032470703125,0.0328369140625,-0.9102783203125,-0.009938318282365799,0.07661738246679306,-2.2909696102142334,0.12145571410655975,0.01666179485619068,-1.4906460046768188,42.68246078491211,86165,10.401772499084473,708650,"['STATE_IDLE', 'STATE_IDLE', 'STATE_IDLE', 'STATE_IDLE']",1196.5289306640625,0.5820262432098389,0.34418752789497375,-218.7941436767578,-4.766211032867432,-0.05340776965022087,-5948.22509765625,-123.4737777709961,-1.2802519798278809
99480,-0.014640000648796558,-0.04294399917125702,1.0282161235809326,1.6799999475479126,-3.8499999046325684,-1.3300000429153442,32.93954086303711,-106.91143798828125,1401.686,19,True,37.96999740600586,888.4400024414062,1195.6959228515625,-0.00390625,0.048828125,1.08984375,12.703628540039062,8.101757049560547,-0.02001953125,0.03302001953125,-0.91021728515625,-0.02001953125,0.03302001953125,-0.91021728515625,-0.02001953125,0.03302001953125,-0.91021728515625,-0.009216826409101486,0.07669918984174728,-2.2906126976013184,0.119994156062603,0.017831044271588326,-1.4878690242767334,42.681522369384766,86165,10.421582221984863,704991,"['STATE_IDLE', 'STATE_IDLE', 'STATE_IDLE', 'STATE_IDLE']",1196.503662109375,0.5595632195472717,0.33542123436927795,-219.1417694091797,-4.768258094787598,-0.04600651562213898,-5957.24169921875,-123.5657730102539,-1.274390459060669
99490,-0.014640000648796558,-0.04294399917125702,1.0282161235809326,1.6799999475479126,-3.8499999046325684,-1.3300000429153442,32.93954086303711,-106.91143798828125,1401.681,19,True,37.96999740600586,888.4400024414062,1195.6959228515625,-0.00390625,0.048828125,1.08984375,12.703628540039062,8.101757049560547,-0.02001953125,0.03302001953125,-0.91021728515625,-0.02001953125,0.03302001953125,-0.91021728515625,-0.02001953125,0.03302001953125,-0.91021728515625,-0.009216826409101486,0.07669918984174728,-2.2906126976013184,0.119994156062603,0.017831044271588326,-1.4878690242767334,42.681522369384766,86165,10.421582221984863,704991,"['STATE_IDLE', 'STATE_IDLE', 'STATE_IDLE', 'STATE_IDLE']",1196.503662109375,0.5595632195472717,0.33542123436927795,-219.1417694091797,-4.768258094787598,-0.04600651562213898,-5957.24169921875,-123.5657730102539,-1.274390459060669
99500,-0.014640000648796558,-0.04294399917125702,1.0282161235809326,1.6799999475479126,-3.8499999046325684,-1.3300000429153442,32.93954086303711,-106.91143798828125,1401.681,19,True,37.96999740600586,888.4400024414062,1195.6959228515625,-0.00390625,0.048828125,1.08984375,12.703628540039062,8.101757049560547,-0.02001953125,0.03302001953125,-0.91021728515625,-0.02001953125,0.03302001953125,-0.91021728515625,-0.02001953125,0.03302001953125,-0.91021728515625,-0.009216826409101486,0.07669918984174728,-2.2906126976013184,0.119994156062603,0.017831044271588326,-1.4878690242767334,42.681522369384766,86165,10.421582221984863,704991,"['STATE_IDLE', 'STATE_IDLE', 'STATE_IDLE', 'STATE_IDLE']",1196.503662109375,0.5595632195472717,0.33542123436927795,-219.1417694091797,-4.768258094787598,-0.04600651562213898,-5957.24169921875,-123.5657730102539,-1.274390459060669
99510,-0.014640000648796558,-0.04294399917125702,1.0282161235809326,1.6799999475479126,-3.8499999046325684,-1.3300000429153442,32.93954086303711,-106.91143798828125,1401.681,19,True,37.98999786376953,888.4299926757812,1195.87548828125,-0.00390625,0.048828125,1.08984375,12.703628540039062,8.101757049560547,-0.02001953125,0.03302001953125,-0.91021728515625,-0.02001953125,0.03302001953125,-0.91021728515625,-0.02001953125,0.03302001953125,-0.91021728515625,-0.009216826409101486,0.07669918984174728,-2.2906126976013184,0.11926337331533432,0.022069569677114487,-1.4913767576217651,42.681522369384766,86165,10.421582221984863,704991,"['STATE_IDLE', 'STATE_IDLE', 'STATE_IDLE', 'STATE_IDLE']",1196.503662109375,0.5595632195472717,0.33542123436927795,-219.1417694091797,-4.768258094787598,-0.04600651562213898,-5957.24169921875,-123.5657730102539,-1.274390459060669
99520,-0.008296000771224499,-0.043432001024484634,1.0248000621795654,1.8200000524520874,-3.8499999046325684,-1.8899999856948853,32.93954086303711,-106.91143798828125,1401.681,19,True,37.98999786376953,888.4299926757812,1195.87548828125,-0.01171875,0.052734375,1.0859375,12.703628540039062,8.092089653015137,-0.02008056640625,0.03326416015625,-0.910400390625,-0.02008056640625,0.03326416015625,-0.910400390625,-0.02008056640625,0.03326416015625,-0.910400390625,-0.009157875552773476,0.07718900591135025,-2.2914316654205322,0.11926337331533432,0.022069569677114487,-1.4913767576217651,42.681522369384766,86165,10.421582221984863,704991,"['STATE_IDLE', 'STATE_IDLE', 'STATE_IDLE', 'STATE_IDLE']",1196.503662109375,0.5595632195472717,0.33542123436927795,-219.1417694091797,-4.768258094787598,-0.04600651562213898,-5957.24169921875,-123.5657730102539,-1.274390459060669
99530,-0.008296000771224499,-0.043432001024484634,1.0248000621795654,1.8200000524520874,-3.8499999046325684,-1.8899999856948853,32.93954086303711,-106.91143798828125,1401.681,19,True,37.98999786376953,888.4299926757812,1195.87548828125,-0.01171875,0.052734375,1.0859375,12.703628540039062,8.092089653015137,-0.02008056640625,0.03326416015625,-0.910400390625,-0.02008056640625,0.03326416015625,-0.910400390625,-0.02008056640625,0.03326416015625,-0.910400390625,-0.009157875552773476,0.07718900591135025,-2.2914316654205322,0.11926337331533432,0.022069569677114487,-1.4913767576217651,42.681522369384766,86165,10.421582221984863,704991,"['STATE_IDLE', 'STATE_IDLE', 'STATE_IDLE', 'STATE_IDLE']",1196.503662109375,0.5595632195472717,0.33542123436927795,-219.1417694091797,-4.768258094787598,-0.04600651562213898,-5957.24169921875,-123.5657730102539,-1.274390459060669
99540,-0.008296000771224499,-0.043432001024484634,1.0248000621795654,1.8200000524520874,-3.8499999046325684,-1.8899999856948853,32.93954086303711,-106.91143798828125,1401.681,19,True,37.98999786376953,888.4400024414062,1195.7728271484375,-0.01171875,0.052734375,1.0859375,12.703628540039062,8.092089653015137,-0.02008056640625,0.03326416015625,-0.910400390625,-0.02008056640625,0.03326416015625,-0.910400390625,-0.02008056640625,0.03326416015625,-0.910400390625,-0.009157875552773476,0.07718900591135025,-2.2914316654205322,0.1239403709769249,0.022361882030963898,-1.4951767921447754,42.681522369384766,86165,10.421582221984863,704991,"['STATE_IDLE', 'STATE_IDLE', 'STATE_IDLE', 'STATE_IDLE']",1196.503662109375,0.5595632195472717,0.33542123436927795,-219.1417694091797,-4.768258094787598,-0.04600651562213898,-5957.24169921875,-123.5657730102539,-1.274390459060669
99550,-0.012199999764561653,-0.04684799909591675,1.0228480100631714,1.75,-3.8499999046325684,-1.2599999904632568,32.93954086303711,-106.91143798828125,1401.681,19,True,37.98999786376953,888.4400024414062,1195.7728271484375,-0.009765625,0.048828125,1.0859375,12.703628540039062,8.07275390625,-0.02001953125,0.03326416015625,-0.910400390625,-0.02001953125,0.03326416015625,-0.910400390625,-0.02001953125,0.03326416015625,-0.910400390625,-0.009046763181686401,0.07713868468999863,-2.291436195373535,0.1239403709769249,0.022361882030963898,-1.4951767921447754,42.681522369384766,86165,10.421582221984863,704991,"['STATE_IDLE', 'STATE_IDLE', 'STATE_IDLE', 'STATE_IDLE']",1196.4757080078125,0.5374565124511719,0.3317345082759857,-219.40890502929688,-4.770946979522705,-0.04645726829767227,-5964.16357421875,-123.63739013671875,-1.2754101753234863
99560,-0.012199999764561653,-0.04684799909591675,1.0228480100631714,1.75,-3.8499999046325684,-1.2599999904632568,32.93954086303711,-106.91143798828125,1401.681,19,True,37.98999786376953,888.4400024414062,1195.7728271484375,-0.009765625,0.048828125,1.0859375,12.703628540039062,8.07275390625,-0.02001953125,0.03326416015625,-0.910400390625,-0.02001953125,0.03326416015625,-0.910400390625,-0.02001953125,0.03326416015625,-0.910400390625,-0.009046763181686401,0.07713868468999863,-2.291436195373535,0.1239403709769249,0.022361882030963898,-1.4951767921447754,42.681522369384766,86165,10.421582221984863,704991,"['STATE_IDLE', 'STATE_IDLE', 'STATE_IDLE', 'STATE_IDLE']",1196.4757080078125,0.5374565124511719,0.3317345082759857,-219.40890502929688,-4.770946979522705,-0.04645726829767227,-5964.16357421875,-123.63739013671875,-1.2754101753234863
99570,-0.012199999764561653,-0.04684799909591675,1.0228480100631714,1.75,-3.8499999046325684,-1.2599999904632568,32.93954086303711,-106.91143798828125,1401.681,19,True,37.98999786376953,888.4400024414062,1195.7728271484375,-0.009765625,0.048828125,1.0859375,12.703628540039062,8.07275390625,-0.02001953125,0.03326416015625,-0.910400390625,-0.02001953125,0.03326416015625,-0.910400390625,-0.02001953125,0.03326416015625,-0.910400390625,-0.009046763181686401,0.07713868468999863,-2.291436195373535,0.1239403709769249,0.022361882030963898,-1.4951767921447754,42.681522369384766,86165,10.421582221984863,704991,"['STATE_IDLE', 'STATE_IDLE', 'STATE_IDLE', 'STATE_IDLE']",1196.4757080078125,0.5374565124511719,0.3317345082759857,-219.40890502929688,-4.770946979522705,-0.04645726829767227,-5964.16357421875,-123.63739013671875,-1.2754101753234863
99580,-0.015128000639379025,-0.04392000287771225,1.0272400379180908,1.75,-4.059999942779541,-1.399999976158142,32.93954086303711,-106.91143798828125,1401.681,19,True,38.0,888.4299926757812,1195.9139404296875,-0.009765625,0.05078125,1.0859375,12.703628540039062,8.101757049560547,-0.02001953125,0.03326416015625,-0.910400390625,-0.02001953125,0.03326416015625,-0.910400390625,-0.02001953125,0.03326416015625,-0.910400390625,-0.009046763181686401,0.07713868468999863,-2.291436195373535,0.12496346235275269,0.02031569741666317,-1.4894767999649048,42.681522369384766,86165,10.421582221984863,704991,"['STATE_IDLE', 'STATE_IDLE', 'STATE_IDLE', 'STATE_IDLE']",1196.4757080078125,0.5374565124511719,0.3317345082759857,-219.40890502929688,-4.770946979522705,-0.04645726829767227,-5964.16357421875,-123.63739013671875,-1.2754101753234863
99590,-0.015128000639379025,-0.04392000287771225,1.0272400379180908,1.75,-4.059999942779541,-1.399999976158142,32.93954086303711,-106.91143798828125,1401.681,19,True,38.0,888.4299926757812,1195.9139404296875,-0.009765625,0.05078125,1.0859375,12.703628540039062,8.101757049560547,-0.02001953125,0.03326416015625,-0.910400390625,-0.02001953125,0.03326416015625,-0.910400390625,-0.02001953125,0.03326416015625,-0.910400390625,-0.009046763181686401,0.07713868468999863,-2.291436195373535,0.12496346235275269,0.02031569741666317,-1.4894767999649048,42.681522369384766,86165,10.421582221984863,704991,"['STATE_IDLE', 'STATE_IDLE', 'STATE_IDLE', 'STATE_IDLE']",1196.4757080078125,0.5374565124511719,0.3317345082759857,-219.40890502929688,-4.770946979522705,-0.04645726829767227,-5964.16357421875,-123.63739013671875,-1.2754101753234863
99600,-0.015128000639379025,-0.04392000287771225,1.0272400379180908,1.75,-4.059999942779541,-1.399999976158142,32.93954086303711,-106.91143798828125,1401.681,19,True,38.0,888.4299926757812,1195.9139404296875,-0.009765625,0.05078125,1.0859375,12.703628540039062,8.101757049560547,-0.02001953125,0.03326416015625,-0.910400390625,-0.02001953125,0.03326416015625,-0.910400390625,-0.02001953125,0.03326416015625,-0.910400390625,-0.009046763181686401,0.07713868468999863,-2.291436195373535,0.12496346235275269,0.02031569741666317,-1.4894767999649048,42.681522369384766,86165,10.421582221984863,704991,"['STATE_IDLE', 'STATE_IDLE', 'STATE_IDLE', 'STATE_IDLE']",1196.4757080078125,0.5374565124511719,0.3317345082759857,-219.40890502929688,-4.770946979522705,-0.04645726829767227,-5964.16357421875,-123.63739013671875,-1.2754101753234863
99610,-0.01268799975514412,-0.044895999133586884,1.0306559801101685,1.6799999475479126,-3.8499999046325684,-1.3300000429153442,32.93954086303711,-106.91143798828125,1401.681,19,True,38.029998779296875,888.4099731445312,1196.234130859375,-0.005859375,0.048828125,1.087890625,12.703628540039062,8.101757049560547,-0.02001953125,0.03326416015625,-0.910400390625,-0.02001953125,0.03326416015625,-0.910400390625,-0.02001953125,0.03326416015625,-0.910400390625,-0.009046763181686401,0.07713868468999863,-2.291436195373535,0.11721719056367874,0.02192341350018978,-1.4925460815429688,42.681522369384766,86165,10.421582221984863,704991,"['STATE_IDLE', 'STATE_IDLE', 'STATE_IDLE', 'STATE_IDLE']",1196.48486328125,0.5423191785812378,0.34008532762527466,-219.6812286376953,-4.774849891662598,-0.05156966671347618,-5971.21337890625,-123.71154022216797,-1.281322717666626
99620,-0.01268799975514412,-0.044895999133586884,1.0306559801101685,1.6799999475479126,-3.8499999046325684,-1.3300000429153442,32.93954086303711,-106.91143798828125,1401.681,19,True,38.029998779296875,888.4099731445312,1196.234130859375,-0.005859375,0.048828125,1.087890625,12.703628540039062,8.101757049560547,-0.02001953125,0.03326416015625,-0.910400390625,-0.02001953125,0.03326416015625,-0.910400390625,-0.02001953125,0.03326416015625,-0.910400390625,-0.009046763181686401,0.07713868468999863,-2.291436195373535,0.11721719056367874,0.02192341350018978,-1.4925460815429688,42.681522369384766,86165,10.421582221984863,704991,"['STATE_IDLE', 'STATE_IDLE', 'STATE_IDLE', 'STATE_IDLE']",1196.48486328125,0.5423191785812378,0.34008532762527466,-219.6812286376953,-4.774849891662598,-0.05156966671347618,-5971.21337890625,-123.71154022216797,-1.281322717666626
99630,-0.01268799975514412,-0.044895999133586884,1.0306559801101685,1.6799999475479126,-3.8499999046325684,-1.3300000429153442,32.93954086303711,-106.91143798828125,1401.681,19,True,38.029998779296875,888.4099731445312,1196.234130859375,-0.005859375,0.048828125,1.087890625,12.703628540039062,8.101757049560547,-0.02001953125,0.03326416015625,-0.910400390625,-0.02001953125,0.03326416015625,-0.910400390625,-0.02001953125,0.03326416015625,-0.910400390625,-0.009046763181686401,0.07713868468999863,-2.291436195373535,0.11721719056367874,0.02192341350018978,-1.4925460815429688,42.681522369384766,86165,10.421582221984863,704991,"['STATE_IDLE', 'STATE_IDLE', 'STATE_IDLE', 'STATE_IDLE']",1196.48486328125,0.5423191785812378,0.34008532762527466,-219.6812286376953,-4.774849891662598,-0.05156966671347618,-5971.21337890625,-123.71154022216797,-1.281322717666626
99640,-0.010735999792814255,-0.03806399926543236,1.0306559801101685,1.75,-3.640000104904175,-1.8899999856948853,32.93954086303711,-106.91143798828125,1401.681,19,True,38.040000915527344,888.4099731445312,1196.2725830078125,-0.0078125,0.048828125,1.087890625,12.703628540039062,8.07275390625,-0.02001953125,0.03326416015625,-0.910400390625,-0.02001953125,0.03326416015625,-0.910400390625,-0.02001953125,0.03326416015625,-0.910400390625,-0.009046763181686401,0.07713868468999863,-2.291436195373535,0.12335574626922607,0.023384975269436836,-1.4864075183868408,42.681522369384766,86165,10.421582221984863,704991,"['STATE_IDLE', 'STATE_IDLE', 'STATE_IDLE', 'STATE_IDLE']",1196.48486328125,0.5423191785812378,0.34008532762527466,-219.6812286376953,-4.774849891662598,-0.05156966671347618,-5971.21337890625,-123.71154022216797,-1.281322717666626
99650,-0.010735999792814255,-0.03806399926543236,1.0306559801101685,1.75,-3.640000104904175,-1.8899999856948853,32.93954086303711,-106.91143798828125,1401.681,19,True,38.040000915527344,888.4099731445312,1196.2725830078125,-0.0078125,0.048828125,1.087890625,12.703628540039062,8.07275390625,-0.02001953125,0.03326416015625,-0.910400390625,-0.02001953125,0.03326416015625,-0.910400390625,-0.02001953125,0.03326416015625,-0.910400390625,-0.009046763181686401,0.07713868468999863,-2.291436195373535,0.12335574626922607,0.023384975269436836,-1.4864075183868408,42.681522369384766,86165,10.421582221984863,704991,"['STATE_IDLE', 'STATE_IDLE', 'STATE_IDLE', 'STATE_IDLE']",1196.48486328125,0.5423191785812378,0.34008532762527466,-219.6812286376953,-4.774849891662598,-0.05156966671347618,-5971.21337890625,-123.71154022216797,-1.281322717666626
99660,-0.014640000648796558,-0.043432001024484634,1.0301679372787476,1.6799999475479126,-3.569999933242798,-1.1200000047683716,32.93954086303711,-106.91143798828125,1401.681,19,True,38.04999923706055,888.3699951171875,1196.7205810546875,-0.01171875,0.046875,1.087890625,12.703628540039062,8.063085556030273,-0.02001953125,0.03326416015625,-0.910400390625,-0.02001953125,0.03326416015625,-0.910400390625,-0.02001953125,0.03326416015625,-0.910400390625,-0.009046763181686401,0.07713868468999863,-2.291436195373535,0.12306343019008636,0.024846535176038742,-1.4941537380218506,42.681522369384766,86165,10.421582221984863,704991,"['STATE_IDLE', 'STATE_IDLE', 'STATE_IDLE', 'STATE_IDLE']",1196.48486328125,0.5423191785812378,0.34008532762527466,-219.6812286376953,-4.774849891662598,-0.05156966671347618,-5971.21337890625,-123.71154022216797,-1.281322717666626
99670,-0.014640000648796558,-0.043432001024484634,1.0301679372787476,1.6799999475479126,-3.569999933242798,-1.1200000047683716,32.93954086303711,-106.91143798828125,1401.681,19,True,38.04999923706055,888.3699951171875,1196.7205810546875,-0.01171875,0.046875,1.087890625,12.703628540039062,8.063085556030273,-0.02001953125,0.03326416015625,-0.910400390625,-0.02001953125,0.03326416015625,-0.910400390625,-0.02001953125,0.03326416015625,-0.910400390625,-0.009046763181686401,0.07713868468999863,-2.291436195373535,0.12306343019008636,0.024846535176038742,-1.4941537380218506,42.681522369384766,86165,10.421582221984863,704991,"['STATE_IDLE', 'STATE_IDLE', 'STATE_IDLE', 'STATE_IDLE']",1196.486572265625,0.5410357713699341,0.33604204654693604,-219.9778594970703,-4.780117988586426,-0.06017864868044853,-5978.8857421875,-123.79080200195312,-1.2805582284927368
99680,-0.014640000648796558,-0.043432001024484634,1.0301679372787476,1.6799999475479126,-3.569999933242798,-1.1200000047683716,32.93954086303711,-106.91143798828125,1401.681,19,True,38.04999923706055,888.3699951171875,1196.7205810546875,-0.01171875,0.046875,1.087890625,12.703628540039062,8.063085556030273,-0.02001953125,0.03326416015625,-0.910400390625,-0.02001953125,0.03326416015625,-0.910400390625,-0.02001953125,0.03326416015625,-0.910400390625,-0.009046763181686401,0.07713868468999863,-2.291436195373535,0.12306343019008636,0.024846535176038742,-1.4941537380218506,42.681522369384766,86165,10.421582221984863,704991,"['STATE_IDLE', 'STATE_IDLE', 'STATE_IDLE', 'STATE_IDLE']",1196.486572265625,0.5410357713699341,0.33604204654693604,-219.9778594970703,-4.780117988586426,-0.06017864868044853,-5978.8857421875,-123.79080200195312,-1.2805582284927368
99690,-0.016592001542448997,-0.04001599922776222,1.0252879858016968,1.6799999475479126,-3.640000104904175,-1.1200000047683716,32.93954086303711,-106.91143798828125,1401.681,19,True,38.040000915527344,888.4199829101562,1196.17041015625,-0.009765625,0.046875,1.0859375,12.703628540039062,8.082422256469727,-0.02001953125,0.03326416015625,-0.910400390625,-0.02001953125,0.03326416015625,-0.910400390625,-0.02001953125,0.03326416015625,-0.910400390625,-0.009046763181686401,0.07713868468999863,-2.291436195373535,0.119994156062603,0.02455422468483448,-1.488745927810669,42.681522369384766,86165,10.421582221984863,704991,"['STATE_IDLE', 'STATE_IDLE', 'STATE_IDLE', 'STATE_IDLE']",1196.486572265625,0.5410357713699341,0.33604204654693604,-219.9778594970703,-4.780117988586426,-0.06017864868044853,-5978.8857421875,-123.79080200195312,-1.2805582284927368
99700,-0.016592001542448997,-0.04001599922776222,1.0252879858016968,1.6799999475479126,-3.640000104904175,-1.1200000047683716,32.93954086303711,-106.91143798828125,1401.681,19,True,38.040000915527344,888.4199829101562,1196.17041015625,-0.009765625,0.046875,1.0859375,12.703628540039062,8.082422256469727,-0.02001953125,0.03326416015625,-0.910400390625,-0.02001953125,0.03326416015625,-0.910400390625,-0.02001953125,0.03326416015625,-0.910400390625,-0.009046763181686401,0.07713868468999863,-2.291436195373535,0.119994156062603,0.02455422468483448,-1.488745927810669,42.681522369384766,86165,10.421582221984863,704991,"['STATE_IDLE', 'STATE_IDLE', 'STATE_IDLE', 'STATE_IDLE']",1196.486572265625,0.5410357713699341,0.33604204654693604,-219.9778594970703,-4.780117988586426,-0.06017864868044853,-5978.8857421875,-123.79080200195312,-1.2805582284927368
99710,-0.016592001542448997,-0.04001599922776222,1.0252879858016968,1.6799999475479126,-3.640000104904175,-1.1200000047683716,32.93954086303711,-106.91143798828125,1401.681,19,True,38.040000915527344,888.4199829101562,1196.17041015625,-0.009765625,0.046875,1.0859375,12.703628540039062,8.082422256469727,-0.02001953125,0.03326416015625,-0.910400390625,-0.02001953125,0.03326416015625,-0.910400390625,-0.02001953125,0.03326416015625,-0.910400390625,-0.009046763181686401,0.07713868468999863,-2.291436195373535,0.119994156062603,0.02455422468483448,-1.488745927810669,42.681522369384766,86165,10.421582221984863,704991,"['STATE_IDLE', 'STATE_IDLE', 'STATE_IDLE', 'STATE_IDLE']",1196.486572265625,0.5410357713699341,0.33604204654693604,-219.9778594970703,-4.780117988586426,-0.06017864868044853,-5978.8857421875,-123.79080200195312,-1.2805582284927368
99720,-0.016592001542448997,-0.04001599922776222,1.0252879858016968,1.6799999475479126,-3.640000104904175,-1.1200000047683716,32.93954086303711,-106.91143798828125,1401.681,19,True,38.040000915527344,888.4199829101562,1196.17041015625,-0.009765625,0.046875,1.0859375,12.703628540039062,8.082422256469727,-0.02001953125,0.03326416015625,-0.910400390625,-0.02001953125,0.03326416015625,-0.910400390625,-0.02001953125,0.03326416015625,-0.910400390625,-0.009046763181686401,0.07713868468999863,-2.291436195373535,0.119994156062603,0.02455422468483448,-1.488745927810669,42.681522369384766,86165,10.421582221984863,704991,"['STATE_IDLE', 'STATE_IDLE', 'STATE_IDLE', 'STATE_IDLE']",1196.486572265625,0.5410357713699341,0.33604204654693604,-219.9778594970703,-4.780117988586426,-0.06017864868044853,-5978.8857421875,-123.79080200195312,-1.2805582284927368
99730,-0.014152000658214092,-0.04294399917125702,1.0272400379180908,1.6100000143051147,-3.7100000381469727,-1.6100000143051147,32.93954086303711,-106.91143798828125,1401.681,19,True,38.05999755859375,888.469970703125,1195.73486328125,-0.01171875,0.048828125,1.08203125,12.703628540039062,8.092089653015137,-0.02001953125,0.03326416015625,-0.910400390625,-0.02001953125,0.03326416015625,-0.910400390625,-0.02001953125,0.03326416015625,-0.910400390625,-0.009046763181686401,0.07713868468999863,-2.291436195373535,0.13227126002311707,0.021046478301286697,-1.4934229850769043,42.689353942871094,86164,10.411948204040527,710124,"['STATE_IDLE', 'STATE_IDLE', 'STATE_IDLE', 'STATE_IDLE']",1196.42724609375,0.49829426407814026,0.33094194531440735,-220.2457275390625,-4.783874034881592,-0.06181567907333374,-5985.81982421875,-123.86347961425781,-1.2846574783325195
99740,-0.014152000658214092,-0.04294399917125702,1.0272400379180908,1.6100000143051147,-3.7100000381469727,-1.6100000143051147,32.93954086303711,-106.91143798828125,1401.681,19,True,38.05999755859375,888.469970703125,1195.73486328125,-0.01171875,0.048828125,1.08203125,12.703628540039062,8.092089653015137,-0.02001953125,0.03326416015625,-0.910400390625,-0.02001953125,0.03326416015625,-0.910400390625,-0.02001953125,0.03326416015625,-0.910400390625,-0.009046763181686401,0.07713868468999863,-2.291436195373535,0.13227126002311707,0.021046478301286697,-1.4934229850769043,42.689353942871094,86164,10.411948204040527,710124,"['STATE_IDLE', 'STATE_IDLE', 'STATE_IDLE', 'STATE_IDLE']",1196.42724609375,0.49829426407814026,0.33094194531440735,-220.2457275390625,-4.783874034881592,-0.06181567907333374,-5985.81982421875,-123.86347961425781,-1.2846574783325195
99750,-0.010735999792814255,-0.04050400108098984,1.0272400379180908,1.6100000143051147,-3.640000104904175,-1.2599999904632568,32.93954086303711,-106.91143798828125,1401.681,19,True,38.05999755859375,888.489990234375,1195.5294189453125,-0.0078125,0.048828125,1.0859375,12.703628540039062,8.07275390625,-0.02001953125,0.03326416015625,-0.910400390625,-0.02001953125,0.03326416015625,-0.910400390625,-0.02001953125,0.03326416015625,-0.910400390625,-0.009046763181686401,0.07713868468999863,-2.291436195373535,0.13285589218139648,0.025431159883737564,-1.4916690587997437,42.689353942871094,86164,10.411948204040527,710124,"['STATE_IDLE', 'STATE_IDLE', 'STATE_IDLE', 'STATE_IDLE']",1196.42724609375,0.49829426407814026,0.33094194531440735,-220.2457275390625,-4.783874034881592,-0.06181567907333374,-5985.81982421875,-123.86347961425781,-1.2846574783325195
99760,-0.010735999792814255,-0.04050400108098984,1.0272400379180908,1.6100000143051147,-3.640000104904175,-1.2599999904632568,32.93954086303711,-106.91143798828125,1401.681,19,True,38.05999755859375,888.489990234375,1195.5294189453125,-0.0078125,0.048828125,1.0859375,12.703628540039062,8.07275390625,-0.02001953125,0.03326416015625,-0.910400390625,-0.02001953125,0.03326416015625,-0.910400390625,-0.02001953125,0.03326416015625,-0.910400390625,-0.009046763181686401,0.07713868468999863,-2.291436195373535,0.13285589218139648,0.025431159883737564,-1.4916690587997437,42.689353942871094,86164,10.411948204040527,710124,"['STATE_IDLE', 'STATE_IDLE', 'STATE_IDLE', 'STATE_IDLE']",1196.42724609375,0.49829426407814026,0.33094194531440735,-220.2457275390625,-4.783874034881592,-0.06181567907333374,-5985.81982421875,-123.86347961425781,-1.2846574783325195
99770,-0.010735999792814255,-0.04050400108098984,1.0272400379180908,1.6100000143051147,-3.640000104904175,-1.2599999904632568,32.93954086303711,-106.91143798828125,1401.681,19,True,38.05999755859375,888.489990234375,1195.5294189453125,-0.0078125,0.048828125,1.0859375,12.703628540039062,8.07275390625,-0.02001953125,0.03326416015625,-0.910400390625,-0.02001953125,0.03326416015625,-0.910400390625,-0.02001953125,0.03326416015625,-0.910400390625,-0.009046763181686401,0.07713868468999863,-2.291436195373535,0.13285589218139648,0.025431159883737564,-1.4916690587997437,42.689353942871094,86164,10.411948204040527,710124,"['STATE_IDLE', 'STATE_IDLE', 'STATE_IDLE', 'STATE_IDLE']",1196.42724609375,0.49829426407814026,0.33094194531440735,-220.2457275390625,-4.783874034881592,-0.06181567907333374,-5985.81982421875,-123.86347961425781,-1.2846574783325195
99780,-0.014640000648796558,-0.041968002915382385,1.0277280807495117,1.6100000143051147,-3.7799999713897705,-1.5399999618530273,32.93954086303711,-106.91143798828125,1401.681,19,True,38.06999969482422,888.3499755859375,1197.0030517578125,-0.009765625,0.05078125,1.0859375,12.703628540039062,8.063085556030273,-0.0201416015625,0.0333251953125,-0.9102783203125,-0.0201416015625,0.0333251953125,-0.9102783203125,-0.0201416015625,0.0333251953125,-0.9102783203125,-0.009197669103741646,0.07735376805067062,-2.2908833026885986,0.1294942945241928,0.02265419438481331,-1.4909383058547974,42.689353942871094,86164,10.411948204040527,710124,"['STATE_IDLE', 'STATE_IDLE', 'STATE_IDLE', 'STATE_IDLE']",1196.425537109375,0.49635615944862366,0.33102574944496155,-220.5132598876953,-4.785400867462158,-0.05344890058040619,-5992.75830078125,-123.9351806640625,-1.2836439609527588
99790,-0.014640000648796558,-0.041968002915382385,1.0277280807495117,1.6100000143051147,-3.7799999713897705,-1.5399999618530273,32.93954086303711,-106.91143798828125,1401.681,19,True,38.06999969482422,888.3499755859375,1197.0030517578125,-0.009765625,0.05078125,1.0859375,12.703628540039062,8.063085556030273,-0.0201416015625,0.0333251953125,-0.9102783203125,-0.0201416015625,0.0333251953125,-0.9102783203125,-0.0201416015625,0.0333251953125,-0.9102783203125,-0.009197669103741646,0.07735376805067062,-2.2908833026885986,0.1294942945241928,0.02265419438481331,-1.4909383058547974,42.689353942871094,86164,10.411948204040527,710124,"['STATE_IDLE', 'STATE_IDLE', 'STATE_IDLE', 'STATE_IDLE']",1196.425537109375,0.49635615944862366,0.33102574944496155,-220.5132598876953,-4.785400867462158,-0.05344890058040619,-5992.75830078125,-123.9351806640625,-1.2836439609527588
99800,-0.014640000648796558,-0.041968002915382385,1.0277280807495117,1.6100000143051147,-3.7799999713897705,-1.5399999618530273,32.93954086303711,-106.91143798828125,1401.681,19,True,38.06999969482422,888.3499755859375,1197.0030517578125,-0.009765625,0.05078125,1.0859375,12.703628540039062,8.063085556030273,-0.0201416015625,0.0333251953125,-0.9102783203125,-0.0201416015625,0.0333251953125,-0.9102783203125,-0.0201416015625,0.0333251953125,-0.9102783203125,-0.009197669103741646,0.07735376805067062,-2.2908833026885986,0.1294942945241928,0.02265419438481331,-1.4909383058547974,42.689353942871094,86164,10.411948204040527,710124,"['STATE_IDLE', 'STATE_IDLE', 'STATE_IDLE', 'STATE_IDLE']",1196.425537109375,0.49635615944862366,0.33102574944496155,-220.5132598876953,-4.785400867462158,-0.05344890058040619,-5992.75830078125,-123.9351806640625,-1.2836439609527588
99810,-0.014640000648796558,-0.0424560010433197,1.0243120193481445,1.6799999475479126,-3.7799999713897705,-1.190000057220459,32.93954086303711,-106.91143798828125,1401.681,19,True,38.07999801635742,888.4400024414062,1196.11865234375,-0.009765625,0.052734375,1.0859375,12.703628540039062,8.07275390625,-0.0201416015625,0.0333251953125,-0.9102783203125,-0.0201416015625,0.0333251953125,-0.9102783203125,-0.0201416015625,0.0333251953125,-0.9102783203125,-0.009197669103741646,0.07735376805067062,-2.2908833026885986,0.1278865784406662,0.01900029182434082,-1.489038348197937,42.689353942871094,86164,10.411948204040527,710124,"['STATE_IDLE', 'STATE_IDLE', 'STATE_IDLE', 'STATE_IDLE']",1196.425537109375,0.49635615944862366,0.33102574944496155,-220.5132598876953,-4.785400867462158,-0.05344890058040619,-5992.75830078125,-123.9351806640625,-1.2836439609527588
99820,-0.014640000648796558,-0.0424560010433197,1.0243120193481445,1.6799999475479126,-3.7799999713897705,-1.190000057220459,32.93954086303711,-106.91143798828125,1401.681,19,True,38.07999801635742,888.4400024414062,1196.11865234375,-0.009765625,0.052734375,1.0859375,12.703628540039062,8.07275390625,-0.0201416015625,0.0333251953125,-0.9102783203125,-0.0201416015625,0.0333251953125,-0.9102783203125,-0.0201416015625,0.0333251953125,-0.9102783203125,-0.009197669103741646,0.07735376805067062,-2.2908833026885986,0.1278865784406662,0.01900029182434082,-1.489038348197937,42.689353942871094,86164,10.411948204040527,710124,"['STATE_IDLE', 'STATE_IDLE', 'STATE_IDLE', 'STATE_IDLE']",1196.425537109375,0.49635615944862366,0.33102574944496155,-220.5132598876953,-4.785400867462158,-0.05344890058040619,-5992.75830078125,-123.9351806640625,-1.2836439609527588
99830,-0.014640000648796558,-0.0424560010433197,1.0243120193481445,1.6799999475479126,-3.7799999713897705,-1.190000057220459,32.93954086303711,-106.91143798828125,1401.681,19,True,38.07999801635742,888.4400024414062,1196.11865234375,-0.009765625,0.052734375,1.0859375,12.703628540039062,8.07275390625,-0.0201416015625,0.0333251953125,-0.9102783203125,-0.0201416015625,0.0333251953125,-0.9102783203125,-0.0201416015625,0.0333251953125,-0.9102783203125,-0.009197669103741646,0.07735376805067062,-2.2908833026885986,0.1278865784406662,0.01900029182434082,-1.489038348197937,42.689353942871094,86164,10.411948204040527,710124,"['STATE_IDLE', 'STATE_IDLE', 'STATE_IDLE', 'STATE_IDLE']",1196.425537109375,0.49635615944862366,0.33102574944496155,-220.5132598876953,-4.785400867462158,-0.05344890058040619,-5992.75830078125,-123.9351806640625,-1.2836439609527588
99840,-0.01903199963271618,-0.044895999133586884,1.0301679372787476,1.6100000143051147,-3.7100000381469727,-1.8200000524520874,32.93954086303711,-106.91143798828125,1401.681,19,True,37.959999084472656,888.4400024414062,1195.657470703125,-0.013671875,0.052734375,1.087890625,12.703628540039062,8.082422256469727,-0.0201416015625,0.0333251953125,-0.9102783203125,-0.0201416015625,0.0333251953125,-0.9102783203125,-0.0201416015625,0.0333251953125,-0.9102783203125,-0.009197669103741646,0.07735376805067062,-2.2908833026885986,0.12043262273073196,0.023677287623286247,-1.4824612140655518,42.689353942871094,86164,10.411948204040527,710124,"['STATE_IDLE', 'STATE_IDLE', 'STATE_IDLE', 'STATE_IDLE']",1196.4193115234375,0.48990732431411743,0.34018823504447937,-221.22161865234375,-4.791351795196533,-0.0454057939350605,-6011.1142578125,-124.12222290039062,-1.2715814113616943
99850,-0.01903199963271618,-0.044895999133586884,1.0301679372787476,1.6100000143051147,-3.7100000381469727,-1.8200000524520874,32.93954086303711,-106.91143798828125,1401.681,19,True,37.959999084472656,888.4400024414062,1195.657470703125,-0.013671875,0.052734375,1.087890625,12.703628540039062,8.082422256469727,-0.0201416015625,0.0333251953125,-0.9102783203125,-0.0201416015625,0.0333251953125,-0.9102783203125,-0.0201416015625,0.0333251953125,-0.9102783203125,-0.009197669103741646,0.07735376805067062,-2.2908833026885986,0.12043262273073196,0.023677287623286247,-1.4824612140655518,42.689353942871094,86164,10.411948204040527,710124,"['STATE_IDLE', 'STATE_IDLE', 'STATE_IDLE', 'STATE_IDLE']",1196.4193115234375,0.48990732431411743,0.34018823504447937,-221.22161865234375,-4.791351795196533,-0.0454057939350605,-6011.1142578125,-124.12222290039062,-1.2715814113616943
99860,-0.01903199963271618,-0.044895999133586884,1.0301679372787476,1.6100000143051147,-3.7100000381469727,-1.8200000524520874,32.93954086303711,-106.91143798828125,1401.681,19,True,37.959999084472656,888.4400024414062,1195.657470703125,-0.013671875,0.052734375,1.087890625,12.703628540039062,8.082422256469727,-0.0201416015625,0.0333251953125,-0.9102783203125,-0.0201416015625,0.0333251953125,-0.9102783203125,-0.0201416015625,0.0333251953125,-0.9102783203125,-0.009197669103741646,0.07735376805067062,-2.2908833026885986,0.12043262273073196,0.023677287623286247,-1.4824612140655518,42.689353942871094,86164,10.411948204040527,710124,"['STATE_IDLE', 'STATE_IDLE', 'STATE_IDLE', 'STATE_IDLE']",1196.4193115234375,0.48990732431411743,0.34018823504447937,-221.22161865234375,-4.791351795196533,-0.0454057939350605,-6011.1142578125,-124.12222290039062,-1.2715814113616943
99870,-0.01903199963271618,-0.044895999133586884,1.0301679372787476,1.6100000143051147,-3.7100000381469727,-1.8200000524520874,32.93954086303711,-106.91143798828125,1401.681,19,True,37.959999084472656,888.4400024414062,1195.657470703125,-0.013671875,0.052734375,1.087890625,12.703628540039062,8.082422256469727,-0.0201416015625,0.0333251953125,-0.9102783203125,-0.0201416015625,0.0333251953125,-0.9102783203125,-0.0201416015625,0.0333251953125,-0.9102783203125,-0.009197669103741646,0.07735376805067062,-2.2908833026885986,0.12043262273073196,0.023677287623286247,-1.4824612140655518,42.689353942871094,86164,10.411948204040527,710124,"['STATE_IDLE', 'STATE_IDLE', 'STATE_IDLE', 'STATE_IDLE']",1196.4193115234375,0.48990732431411743,0.34018823504447937,-221.22161865234375,-4.791351795196533,-0.0454057939350605,-6011.1142578125,-124.12222290039062,-1.2715814113616943
99880,-0.01903199963271618,-0.044895999133586884,1.0301679372787476,1.6100000143051147,-3.7100000381469727,-1.8200000524520874,32.93954086303711,-106.91143798828125,1401.681,19,True,37.959999084472656,888.4400024414062,1195.657470703125,-0.013671875,0.052734375,1.087890625,12.703628540039062,8.082422256469727,-0.0201416015625,0.0333251953125,-0.9102783203125,-0.0201416015625,0.0333251953125,-0.9102783203125,-0.0201416015625,0.0333251953125,-0.9102783203125,-0.009197669103741646,0.07735376805067062,-2.2908833026885986,0.12043262273073196,0.023677287623286247,-1.4824612140655518,42.689353942871094,86164,10.411948204040527,710124,"['STATE_IDLE', 'STATE_IDLE', 'STATE_IDLE', 'STATE_IDLE']",1196.4193115234375,0.48990732431411743,0.34018823504447937,-221.22161865234375,-4.791351795196533,-0.0454057939350605,-6011.1142578125,-124.12222290039062,-1.2715814113616943
99890,-0.01903199963271618,-0.044895999133586884,1.0301679372787476,1.6100000143051147,-3.7100000381469727,-1.8200000524520874,32.93954086303711,-106.91143798828125,1401.681,19,True,37.959999084472656,888.4400024414062,1195.657470703125,-0.013671875,0.052734375,1.087890625,12.703628540039062,8.082422256469727,-0.0201416015625,0.0333251953125,-0.9102783203125,-0.0201416015625,0.0333251953125,-0.9102783203125,-0.0201416015625,0.0333251953125,-0.9102783203125,-0.009197669103741646,0.07735376805067062,-2.2908833026885986,0.12043262273073196,0.023677287623286247,-1.4824612140655518,42.689353942871094,86164,10.411948204040527,710124,"['STATE_IDLE', 'STATE_IDLE', 'STATE_IDLE', 'STATE_IDLE']",1196.4193115234375,0.48990732431411743,0.34018823504447937,-221.22161865234375,-4.791351795196533,-0.0454057939350605,-6011.1142578125,-124.12222290039062,-1.2715814113616943
99900,-0.01903199963271618,-0.044895999133586884,1.0301679372787476,1.6100000143051147,-3.7100000381469727,-1.8200000524520874,32.93954086303711,-106.91143798828125,1401.681,19,True,37.959999084472656,888.4400024414062,1195.657470703125,-0.013671875,0.052734375,1.087890625,12.703628540039062,8.082422256469727,-0.0201416015625,0.0333251953125,-0.9102783203125,-0.0201416015625,0.0333251953125,-0.9102783203125,-0.0201416015625,0.0333251953125,-0.9102783203125,-0.009197669103741646,0.07735376805067062,-2.2908833026885986,0.12043262273073196,0.023677287623286247,-1.4824612140655518,42.689353942871094,86164,10.411948204040527,710124,"['STATE_IDLE', 'STATE_IDLE', 'STATE_IDLE', 'STATE_IDLE']",1196.4193115234375,0.48990732431411743,0.34018823504447937,-221.22161865234375,-4.791351795196533,-0.0454057939350605,-6011.1142578125,-124.12222290039062,-1.2715814113616943
99910,-0.01903199963271618,-0.044895999133586884,1.0301679372787476,1.6100000143051147,-3.7100000381469727,-1.8200000524520874,32.93954086303711,-106.91143798828125,1401.681,19,True,37.959999084472656,888.4400024414062,1195.657470703125,-0.013671875,0.052734375,1.087890625,12.703628540039062,8.082422256469727,-0.0201416015625,0.0333251953125,-0.9102783203125,-0.0201416015625,0.0333251953125,-0.9102783203125,-0.0201416015625,0.0333251953125,-0.9102783203125,-0.009197669103741646,0.07735376805067062,-2.2908833026885986,0.12043262273073196,0.023677287623286247,-1.4824612140655518,42.689353942871094,86164,10.411948204040527,710124,"['STATE_IDLE', 'STATE_IDLE', 'STATE_IDLE', 'STATE_IDLE']",1196.4193115234375,0.48990732431411743,0.34018823504447937,-221.22161865234375,-4.791351795196533,-0.0454057939350605,-6011.1142578125,-124.12222290039062,-1.2715814113616943
99920,-0.01903199963271618,-0.044895999133586884,1.0301679372787476,1.6100000143051147,-3.7100000381469727,-1.8200000524520874,32.93954086303711,-106.91143798828125,1401.681,19,True,37.959999084472656,888.4400024414062,1195.657470703125,-0.013671875,0.052734375,1.087890625,12.703628540039062,8.082422256469727,-0.0201416015625,0.0333251953125,-0.9102783203125,-0.0201416015625,0.0333251953125,-0.9102783203125,-0.0201416015625,0.0333251953125,-0.9102783203125,-0.009197669103741646,0.07735376805067062,-2.2908833026885986,0.12043262273073196,0.023677287623286247,-1.4824612140655518,42.689353942871094,86164,10.411948204040527,710124,"['STATE_IDLE', 'STATE_IDLE', 'STATE_IDLE', 'STATE_IDLE']",1196.4193115234375,0.48990732431411743,0.34018823504447937,-221.22161865234375,-4.791351795196533,-0.0454057939350605,-6011.1142578125,-124.12222290039062,-1.2715814113616943
99930,-0.01903199963271618,-0.044895999133586884,1.0301679372787476,1.6100000143051147,-3.7100000381469727,-1.8200000524520874,32.93954086303711,-106.91143798828125,1401.681,19,True,37.959999084472656,888.4400024414062,1195.657470703125,-0.013671875,0.052734375,1.087890625,12.703628540039062,8.082422256469727,-0.0201416015625,0.0333251953125,-0.9102783203125,-0.0201416015625,0.0333251953125,-0.9102783203125,-0.0201416015625,0.0333251953125,-0.9102783203125,-0.009197669103741646,0.07735376805067062,-2.2908833026885986,0.12043262273073196,0.023677287623286247,-1.4824612140655518,42.689353942871094,86164,10.411948204040527,710124,"['STATE_IDLE', 'STATE_IDLE', 'STATE_IDLE', 'STATE_IDLE']",1196.4193115234375,0.48990732431411743,0.34018823504447937,-221.22161865234375,-4.791351795196533,-0.0454057939350605,-6011.1142578125,-124.12222290039062,-1.2715814113616943
99940,-0.01903199963271618,-0.044895999133586884,1.0301679372787476,1.6100000143051147,-3.7100000381469727,-1.8200000524520874,32.93954086303711,-106.91143798828125,1401.681,19,True,37.959999084472656,888.4400024414062,1195.657470703125,-0.013671875,0.052734375,1.087890625,12.703628540039062,8.082422256469727,-0.0201416015625,0.0333251953125,-0.9102783203125,-0.0201416015625,0.0333251953125,-0.9102783203125,-0.0201416015625,0.0333251953125,-0.9102783203125,-0.009197669103741646,0.07735376805067062,-2.2908833026885986,0.12043262273073196,0.023677287623286247,-1.4824612140655518,42.689353942871094,86164,10.411948204040527,710124,"['STATE_IDLE', 'STATE_IDLE', 'STATE_IDLE', 'STATE_IDLE']",1196.4193115234375,0.48990732431411743,0.34018823504447937,-221.22161865234375,-4.791351795196533,-0.0454057939350605,-6011.1142578125,-124.12222290039062,-1.2715814113616943
99950,-0.01903199963271618,-0.044895999133586884,1.0301679372787476,1.6100000143051147,-3.7100000381469727,-1.8200000524520874,32.93954086303711,-106.91143798828125,1401.681,19,True,37.959999084472656,888.4400024414062,1195.657470703125,-0.013671875,0.052734375,1.087890625,12.703628540039062,8.082422256469727,-0.0201416015625,0.0333251953125,-0.9102783203125,-0.0201416015625,0.0333251953125,-0.9102783203125,-0.0201416015625,0.0333251953125,-0.9102783203125,-0.009197669103741646,0.07735376805067062,-2.2908833026885986,0.12043262273073196,0.023677287623286247,-1.4824612140655518,42.689353942871094,86164,10.411948204040527,710124,"['STATE_IDLE', 'STATE_IDLE', 'STATE_IDLE', 'STATE_IDLE']",1196.4193115234375,0.48990732431411743,0.34018823504447937,-221.22161865234375,-4.791351795196533,-0.0454057939350605,-6011.1142578125,-124.12222290039062,-1.2715814113616943
99960,-0.01903199963271618,-0.044895999133586884,1.0301679372787476,1.6100000143051147,-3.7100000381469727,-1.8200000524520874,32.93954086303711,-106.91143798828125,1401.681,19,True,37.959999084472656,888.4400024414062,1195.657470703125,-0.013671875,0.052734375,1.087890625,12.703628540039062,8.082422256469727,-0.0201416015625,0.0333251953125,-0.9102783203125,-0.0201416015625,0.0333251953125,-0.9102783203125,-0.0201416015625,0.0333251953125,-0.9102783203125,-0.009197669103741646,0.07735376805067062,-2.2908833026885986,0.12043262273073196,0.023677287623286247,-1.4824612140655518,42.689353942871094,86164,10.411948204040527,710124,"['STATE_IDLE', 'STATE_IDLE', 'STATE_IDLE', 'STATE_IDLE']",1196.4193115234375,0.48990732431411743,0.34018823504447937,-221.22161865234375,-4.791351795196533,-0.0454057939350605,-6011.1142578125,-124.12222290039062,-1.2715814113616943
99970,-0.01903199963271618,-0.044895999133586884,1.0301679372787476,1.6100000143051147,-3.7100000381469727,-1.8200000524520874,32.93954086303711,-106.91143798828125,1401.681,19,True,37.959999084472656,888.4400024414062,1195.657470703125,-0.013671875,0.052734375,1.087890625,12.703628540039062,8.082422256469727,-0.0201416015625,0.0333251953125,-0.9102783203125,-0.0201416015625,0.0333251953125,-0.9102783203125,-0.0201416015625,0.0333251953125,-0.9102783203125,-0.009197669103741646,0.07735376805067062,-2.2908833026885986,0.12043262273073196,0.023677287623286247,-1.4824612140655518,42.689353942871094,86164,10.411948204040527,710124,"['STATE_IDLE', 'STATE_IDLE', 'STATE_IDLE', 'STATE_IDLE']",1196.4193115234375,0.48990732431411743,0.34018823504447937,-221.22161865234375,-4.791351795196533,-0.0454057939350605,-6011.1142578125,-124.12222290039062,-1.2715814113616943
99980,-0.01903199963271618,-0.044895999133586884,1.0301679372787476,1.6100000143051147,-3.7100000381469727,-1.8200000524520874,32.93954086303711,-106.91143798828125,1401.681,19,True,37.96999740600586,888.4299926757812,1195.7987060546875,-0.013671875,0.052734375,1.087890625,12.703628540039062,8.082422256469727,-0.0201416015625,0.0333251953125,-0.9102783203125,-0.0201416015625,0.0333251953125,-0.9102783203125,-0.0201416015625,0.0333251953125,-0.9102783203125,-0.009197669103741646,0.07735376805067062,-2.2908833026885986,0.11955568194389343,0.025138847529888153,-1.489038348197937,42.689979553222656,86164,10.426855087280273,710124,"['STATE_IDLE', 'STATE_IDLE', 'STATE_IDLE', 'STATE_IDLE']",1196.4193115234375,0.48990732431411743,0.34018823504447937,-221.22161865234375,-4.791351795196533,-0.0454057939350605,-6011.1142578125,-124.12222290039062,-1.2715814113616943
99990,-0.014152000658214092,-0.0453839972615242,1.0262640714645386,1.6799999475479126,-3.5,-1.3300000429153442,32.93954086303711,-106.91143798828125,1401.681,19,True,37.96999740600586,888.4299926757812,1195.7987060546875,-0.0078125,0.048828125,1.091796875,12.703628540039062,8.07275390625,-0.0201416015625,0.0333251953125,-0.9102783203125,-0.0201416015625,0.0333251953125,-0.9102783203125,-0.0201416015625,0.0333251953125,-0.9102783203125,-0.009197669103741646,0.07735376805067062,-2.2908833026885986,0.11955568194389343,0.025138847529888153,-1.489038348197937,42.689979553222656,86164,10.426855087280273,710124,"['STATE_IDLE', 'STATE_IDLE', 'STATE_IDLE', 'STATE_IDLE']",1196.3857421875,0.4663168787956238,0.3332552909851074,-221.5811767578125,-4.79514217376709,-0.04694400727748871,-6020.4267578125,-124.21691131591797,-1.268872857093811
100000,-0.014152000658214092,-0.0453839972615242,1.0262640714645386,1.6799999475479126,-3.5,-1.3300000429153442,32.93954086303711,-106.91143798828125,1401.662,19,True,37.96999740600586,888.4299926757812,1195.7987060546875,-0.0078125,0.048828125,1.091796875,12.703628540039062,8.07275390625,-0.0201416015625,0.0333251953125,-0.9102783203125,-0.0201416015625,0.0333251953125,-0.9102783203125,-0.0201416015625,0.0333251953125,-0.9102783203125,-0.009197669103741646,0.07735376805067062,-2.2908833026885986,0.11955568194389343,0.025138847529888153,-1.489038348197937,42.689979553222656,86164,10.426855087280273,710124,"['STATE_IDLE', 'STATE_IDLE', 'STATE_IDLE', 'STATE_IDLE']",1196.3857421875,0.4663168787956238,0.3332552909851074,-221.5811767578125,-4.79514217376709,-0.04694400727748871,-6020.4267578125,-124.21691131591797,-1.268872857093811
100010,-0.014152000658214092,-0.0453839972615242,1.0262640714645386,1.6799999475479126,-3.5,-1.3300000429153442,32.93954086303711,-106.91143798828125,1401.662,19,True,37.96999740600586,888.4299926757812,1195.7987060546875,-0.0078125,0.048828125,1.091796875,12.703628540039062,8.07275390625,-0.0201416015625,0.0333251953125,-0.9102783203125,-0.0201416015625,0.0333251953125,-0.9102783203125,-0.0201416015625,0.0333251953125,-0.9102783203125,-0.009197669103741646,0.07735376805067062,-2.2908833026885986,0.11955568194389343,0.025138847529888153,-1.489038348197937,42.689979553222656,86164,10.426855087280273,710124,"['STATE_IDLE', 'STATE_IDLE', 'STATE_IDLE', 'STATE_IDLE']",1196.3857421875,0.4663168787956238,0.3332552909851074,-221.5811767578125,-4.79514217376709,-0.04694400727748871,-6020.4267578125,-124.21691131591797,-1.268872857093811
100020,-0.017079999670386314,-0.0453839972615242,1.0257760286331177,1.6799999475479126,-3.640000104904175,-1.1200000047683716,32.93954086303711,-106.91143798828125,1401.662,19,True,37.97999954223633,888.4400024414062,1195.7344970703125,-0.01171875,0.05078125,1.0859375,12.703628540039062,8.092089653015137,-0.01995849609375,0.033447265625,-0.91015625,-0.01995849609375,0.033447265625,-0.91015625,-0.01995849609375,0.033447265625,-0.91015625,-0.008742645382881165,0.07742810994386673,-2.2903547286987305,0.1308097094297409,0.025431159883737564,-1.489038348197937,42.689979553222656,86164,10.426855087280273,710124,"['STATE_IDLE', 'STATE_IDLE', 'STATE_IDLE', 'STATE_IDLE']",1196.3857421875,0.4663168787956238,0.3332552909851074,-221.5811767578125,-4.79514217376709,-0.04694400727748871,-6020.4267578125,-124.21691131591797,-1.268872857093811
100030,-0.017079999670386314,-0.0453839972615242,1.0257760286331177,1.6799999475479126,-3.640000104904175,-1.1200000047683716,32.93954086303711,-106.91143798828125,1401.662,19,True,37.97999954223633,888.4400024414062,1195.7344970703125,-0.01171875,0.05078125,1.0859375,12.703628540039062,8.092089653015137,-0.01995849609375,0.033447265625,-0.91015625,-0.01995849609375,0.033447265625,-0.91015625,-0.01995849609375,0.033447265625,-0.91015625,-0.008742645382881165,0.07742810994386673,-2.2903547286987305,0.1308097094297409,0.025431159883737564,-1.489038348197937,42.689979553222656,86164,10.426855087280273,710124,"['STATE_IDLE', 'STATE_IDLE', 'STATE_IDLE', 'STATE_IDLE']",1196.3857421875,0.4663168787956238,0.3332552909851074,-221.5811767578125,-4.79514217376709,-0.04694400727748871,-6020.4267578125,-124.21691131591797,-1.268872857093811
100040,-0.017079999670386314,-0.0453839972615242,1.0257760286331177,1.6799999475479126,-3.640000104904175,-1.1200000047683716,32.93954086303711,-106.91143798828125,1401.662,19,True,37.97999954223633,888.4400024414062,1195.7344970703125,-0.01171875,0.05078125,1.0859375,12.703628540039062,8.092089653015137,-0.01995849609375,0.033447265625,-0.91015625,-0.01995849609375,0.033447265625,-0.91015625,-0.01995849609375,0.033447265625,-0.91015625,-0.008742645382881165,0.07742810994386673,-2.2903547286987305,0.1308097094297409,0.025431159883737564,-1.489038348197937,42.689979553222656,86164,10.426855087280273,710124,"['STATE_IDLE', 'STATE_IDLE', 'STATE_IDLE', 'STATE_IDLE']",1196.3857421875,0.4663168787956238,0.3332552909851074,-221.5811767578125,-4.79514217376709,-0.04694400727748871,-6020.4267578125,-124.21691131591797,-1.268872857093811
100050,-0.017079999670386314,-0.0453839972615242,1.0257760286331177,1.6799999475479126,-3.640000104904175,-1.1200000047683716,32.93954086303711,-106.91143798828125,1401.662,19,True,38.0,888.469970703125,1195.50439453125,-0.01171875,0.05078125,1.0859375,12.703628540039062,8.092089653015137,-0.01995849609375,0.033447265625,-0.91015625,-0.01995849609375,0.033447265625,-0.91015625,-0.01995849609375,0.033447265625,-0.91015625,-0.008742645382881165,0.07742810994386673,-2.2903547286987305,0.12247880548238754,0.021484946832060814,-1.4942998886108398,42.689979553222656,86164,10.426855087280273,710124,"['STATE_IDLE', 'STATE_IDLE', 'STATE_IDLE', 'STATE_IDLE']",1196.3857421875,0.4663168787956238,0.3332552909851074,-221.5811767578125,-4.79514217376709,-0.04694400727748871,-6020.4267578125,-124.21691131591797,-1.268872857093811
100060,-0.016103999689221382,-0.04148000106215477,1.0272400379180908,1.8200000524520874,-3.990000009536743,-1.8899999856948853,32.93954086303711,-106.91143798828125,1401.662,19,True,38.0,888.469970703125,1195.50439453125,-0.015625,0.052734375,1.087890625,12.703628540039062,8.07275390625,-0.01995849609375,0.033447265625,-0.91015625,-0.01995849609375,0.033447265625,-0.91015625,-0.01995849609375,0.033447265625,-0.91015625,-0.008742645382881165,0.07742810994386673,-2.2903547286987305,0.12247880548238754,0.021484946832060814,-1.4942998886108398,42.689979553222656,86164,10.426855087280273,710124,"['STATE_IDLE', 'STATE_IDLE', 'STATE_IDLE', 'STATE_IDLE']",1196.3524169921875,0.4469701647758484,0.35742682218551636,-221.8489227294922,-4.794208526611328,-0.03266796097159386,-6027.38525390625,-124.28907775878906,-1.2732969522476196
100070,-0.016103999689221382,-0.04148000106215477,1.0272400379180908,1.8200000524520874,-3.990000009536743,-1.8899999856948853,32.93954086303711,-106.91143798828125,1401.662,19,True,38.0,888.469970703125,1195.50439453125,-0.015625,0.052734375,1.087890625,12.703628540039062,8.07275390625,-0.01995849609375,0.033447265625,-0.91015625,-0.01995849609375,0.033447265625,-0.91015625,-0.01995849609375,0.033447265625,-0.91015625,-0.008742645382881165,0.07742810994386673,-2.2903547286987305,0.12247880548238754,0.021484946832060814,-1.4942998886108398,42.689979553222656,86164,10.426855087280273,710124,"['STATE_IDLE', 'STATE_IDLE', 'STATE_IDLE', 'STATE_IDLE']",1196.3524169921875,0.4469701647758484,0.35742682218551636,-221.8489227294922,-4.794208526611328,-0.03266796097159386,-6027.38525390625,-124.28907775878906,-1.2732969522476196
100080,-0.016103999689221382,-0.04148000106215477,1.0272400379180908,1.8200000524520874,-3.990000009536743,-1.8899999856948853,32.93954086303711,-106.91143798828125,1401.662,19,True,38.0,888.469970703125,1195.50439453125,-0.015625,0.052734375,1.087890625,12.703628540039062,8.07275390625,-0.01995849609375,0.033447265625,-0.91015625,-0.01995849609375,0.033447265625,-0.91015625,-0.01995849609375,0.033447265625,-0.91015625,-0.008742645382881165,0.07742810994386673,-2.2903547286987305,0.12247880548238754,0.021484946832060814,-1.4942998886108398,42.689979553222656,86164,10.426855087280273,710124,"['STATE_IDLE', 'STATE_IDLE', 'STATE_IDLE', 'STATE_IDLE']",1196.3524169921875,0.4469701647758484,0.35742682218551636,-221.8489227294922,-4.794208526611328,-0.03266796097159386,-6027.38525390625,-124.28907775878906,-1.2732969522476196
100090,-0.011223999783396721,-0.041968002915382385,1.0262640714645386,1.75,-3.7799999713897705,-1.2599999904632568,32.93954086303711,-106.91143798828125,1401.662,19,True,38.02000045776367,888.449951171875,1195.7860107421875,-0.009765625,0.056640625,1.091796875,12.703628540039062,8.082422256469727,-0.01995849609375,0.033447265625,-0.91015625,-0.01995849609375,0.033447265625,-0.91015625,-0.01995849609375,0.033447265625,-0.91015625,-0.008742645382881165,0.07742810994386673,-2.2903547286987305,0.11940953135490417,0.018415667116642,-1.4935691356658936,42.689979553222656,86164,10.426855087280273,710124,"['STATE_IDLE', 'STATE_IDLE', 'STATE_IDLE', 'STATE_IDLE']",1196.3524169921875,0.4469701647758484,0.35742682218551636,-221.8489227294922,-4.794208526611328,-0.03266796097159386,-6027.38525390625,-124.28907775878906,-1.2732969522476196
100100,-0.011223999783396721,-0.041968002915382385,1.0262640714645386,1.75,-3.7799999713897705,-1.2599999904632568,32.93954086303711,-106.91143798828125,1401.662,19,True,38.02000045776367,888.449951171875,1195.7860107421875,-0.009765625,0.056640625,1.091796875,12.703628540039062,8.082422256469727,-0.01995849609375,0.033447265625,-0.91015625,-0.01995849609375,0.033447265625,-0.91015625,-0.01995849609375,0.033447265625,-0.91015625,-0.008742645382881165,0.07742810994386673,-2.2903547286987305,0.11940953135490417,0.018415667116642,-1.4935691356658936,42.689979553222656,86164,10.426855087280273,710124,"['STATE_IDLE', 'STATE_IDLE', 'STATE_IDLE', 'STATE_IDLE']",1196.3524169921875,0.4469701647758484,0.35742682218551636,-221.8489227294922,-4.794208526611328,-0.03266796097159386,-6027.38525390625,-124.28907775878906,-1.2732969522476196
100110,-0.013664000667631626,-0.040991999208927155,1.02675199508667,1.6799999475479126,-3.8499999046325684,-1.5399999618530273,32.93954086303711,-106.91143798828125,1401.662,19,True,38.02000045776367,888.449951171875,1195.7860107421875,-0.0078125,0.0546875,1.087890625,12.703628540039062,8.082422256469727,-0.01995849609375,0.033447265625,-0.91021728515625,-0.01995849609375,0.033447265625,-0.91021728515625,-0.01995849609375,0.033447265625,-0.91021728515625,-0.008757679723203182,0.07742798328399658,-2.290738344192505,0.12218649685382843,0.021046478301286697,-1.4842151403427124,42.689979553222656,86164,10.426855087280273,710124,"['STATE_IDLE', 'STATE_IDLE', 'STATE_IDLE', 'STATE_IDLE']",1196.294921875,0.4099371135234833,0.3501790165901184,-222.12278747558594,-4.798365592956543,-0.042013585567474365,-6034.47216796875,-124.36460876464844,-1.2853155136108398
100120,-0.013664000667631626,-0.040991999208927155,1.02675199508667,1.6799999475479126,-3.8499999046325684,-1.5399999618530273,32.93954086303711,-106.91143798828125,1401.662,19,True,38.02000045776367,888.449951171875,1195.7860107421875,-0.0078125,0.0546875,1.087890625,12.703628540039062,8.082422256469727,-0.01995849609375,0.033447265625,-0.91021728515625,-0.01995849609375,0.033447265625,-0.91021728515625,-0.01995849609375,0.033447265625,-0.91021728515625,-0.008757679723203182,0.07742798328399658,-2.290738344192505,0.12218649685382843,0.021046478301286697,-1.4842151403427124,42.689979553222656,86164,10.426855087280273,710124,"['STATE_IDLE', 'STATE_IDLE', 'STATE_IDLE', 'STATE_IDLE']",1196.294921875,0.4099371135234833,0.3501790165901184,-222.12278747558594,-4.798365592956543,-0.042013585567474365,-6034.47216796875,-124.36460876464844,-1.2853155136108398
100130,-0.013664000667631626,-0.040991999208927155,1.02675199508667,1.6799999475479126,-3.8499999046325684,-1.5399999618530273,32.93954086303711,-106.91143798828125,1401.662,19,True,38.02000045776367,888.449951171875,1195.7860107421875,-0.0078125,0.0546875,1.087890625,12.703628540039062,8.082422256469727,-0.01995849609375,0.033447265625,-0.91021728515625,-0.01995849609375,0.033447265625,-0.91021728515625,-0.01995849609375,0.033447265625,-0.91021728515625,-0.008757679723203182,0.07742798328399658,-2.290738344192505,0.12218649685382843,0.021046478301286697,-1.4842151403427124,42.689979553222656,86164,10.426855087280273,710124,"['STATE_IDLE', 'STATE_IDLE', 'STATE_IDLE', 'STATE_IDLE']",1196.294921875,0.4099371135234833,0.3501790165901184,-222.12278747558594,-4.798365592956543,-0.042013585567474365,-6034.47216796875,-124.36460876464844,-1.2853155136108398
100140,-0.015128000639379025,-0.043432001024484634,1.02675199508667,1.6799999475479126,-3.359999895095825,-1.2599999904632568,32.93954086303711,-106.91143798828125,1401.662,19,True,38.04999923706055,888.489990234375,1195.490966796875,-0.005859375,0.048828125,1.087890625,12.703628540039062,8.101757049560547,-0.01995849609375,0.033447265625,-0.91021728515625,-0.01995849609375,0.033447265625,-0.91021728515625,-0.01995849609375,0.033447265625,-0.91021728515625,-0.008757679723203182,0.07742798328399658,-2.290738344192505,0.12043262273073196,0.023092662915587425,-1.485676646232605,42.689979553222656,86164,10.426855087280273,710124,"['STATE_IDLE', 'STATE_IDLE', 'STATE_IDLE', 'STATE_IDLE']",1196.294921875,0.4099371135234833,0.3501790165901184,-222.12278747558594,-4.798365592956543,-0.042013585567474365,-6034.47216796875,-124.36460876464844,-1.2853155136108398
100150,-0.015128000639379025,-0.043432001024484634,1.02675199508667,1.6799999475479126,-3.359999895095825,-1.2599999904632568,32.93954086303711,-106.91143798828125,1401.662,19,True,38.04999923706055,888.489990234375,1195.490966796875,-0.005859375,0.048828125,1.087890625,12.703628540039062,8.101757049560547,-0.01995849609375,0.033447265625,-0.91021728515625,-0.01995849609375,0.033447265625,-0.91021728515625,-0.01995849609375,0.033447265625,-0.91021728515625,-0.008757679723203182,0.07742798328399658,-2.290738344192505,0.12043262273073196,0.023092662915587425,-1.485676646232605,42.689979553222656,86164,10.426855087280273,710124,"['STATE_IDLE', 'STATE_IDLE', 'STATE_IDLE', 'STATE_IDLE']",1196.294921875,0.4099371135234833,0.3501790165901184,-222.12278747558594,-4.798365592956543,-0.042013585567474365,-6034.47216796875,-124.36460876464844,-1.2853155136108398
100160,-0.015128000639379025,-0.043432001024484634,1.02675199508667,1.6799999475479126,-3.359999895095825,-1.2599999904632568,32.93954086303711,-106.91143798828125,1401.662,19,True,38.04999923706055,888.489990234375,1195.490966796875,-0.005859375,0.048828125,1.087890625,12.703628540039062,8.101757049560547,-0.01995849609375,0.033447265625,-0.91021728515625,-0.01995849609375,0.033447265625,-0.91021728515625,-0.01995849609375,0.033447265625,-0.91021728515625,-0.008757679723203182,0.07742798328399658,-2.290738344192505,0.12043262273073196,0.023092662915587425,-1.485676646232605,42.689979553222656,86164,10.426855087280273,710124,"['STATE_IDLE', 'STATE_IDLE', 'STATE_IDLE', 'STATE_IDLE']",1196.294921875,0.4099371135234833,0.3501790165901184,-222.12278747558594,-4.798365592956543,-0.042013585567474365,-6034.47216796875,-124.36460876464844,-1.2853155136108398
100170,-0.017079999670386314,-0.039528001099824905,1.0248000621795654,1.75,-3.990000009536743,-1.5399999618530273,32.93954086303711,-106.91143798828125,1401.662,19,True,38.04999923706055,888.469970703125,1195.6964111328125,-0.0078125,0.05078125,1.0859375,12.703628540039062,8.07275390625,-0.01995849609375,0.033447265625,-0.91021728515625,-0.01995849609375,0.033447265625,-0.91021728515625,-0.01995849609375,0.033447265625,-0.91021728515625,-0.008757679723203182,0.07742798328399658,-2.290738344192505,0.12803274393081665,0.023092662915587425,-1.4869921207427979,42.689979553222656,86164,10.426855087280273,710124,"['STATE_IDLE', 'STATE_IDLE', 'STATE_IDLE', 'STATE_IDLE']",1196.32275390625,0.4329819679260254,0.35206785798072815,-222.4111785888672,-4.8025617599487305,-0.04897720366716385,-6041.93603515625,-124.44065856933594,-1.2808833122253418
100180,-0.017079999670386314,-0.039528001099824905,1.0248000621795654,1.75,-3.990000009536743,-1.5399999618530273,32.93954086303711,-106.91143798828125,1401.662,19,True,38.04999923706055,888.469970703125,1195.6964111328125,-0.0078125,0.05078125,1.0859375,12.703628540039062,8.07275390625,-0.01995849609375,0.033447265625,-0.91021728515625,-0.01995849609375,0.033447265625,-0.91021728515625,-0.01995849609375,0.033447265625,-0.91021728515625,-0.008757679723203182,0.07742798328399658,-2.290738344192505,0.12803274393081665,0.023092662915587425,-1.4869921207427979,42.689979553222656,86164,10.426855087280273,710124,"['STATE_IDLE', 'STATE_IDLE', 'STATE_IDLE', 'STATE_IDLE']",1196.32275390625,0.4329819679260254,0.35206785798072815,-222.4111785888672,-4.8025617599487305,-0.04897720366716385,-6041.93603515625,-124.44065856933594,-1.2808833122253418
